TITLE	CA
DATA TYPE	INFRARED SPECTRUM
ORIGIN	JASCO
OWNER	
DATE	24/11/05
TIME	12:01:37
SPECTROMETER/DATA SYSTEM	
LOCALE	3082
RESOLUTION	
DELTAX	0,964233
XUNITS	1/CM
YUNITS	TRANSMITTANCE
FIRSTX	  399,1927
LASTX	 4000,6047
NPOINTS	    3736
FIRSTY	    68,00873
MAXY	    99,03922
MINY	    16,35128
XYDATA
399,1927	68,0087
400,1569	72,0082
401,1211	77,9214
402,0854	83,7952
403,0496	88,5234
404,0138	91,4866
404,9781	92,3639
405,9423	91,2606
406,9065	88,8187
407,8708	86,0305
408,8350	83,8199
409,7992	82,7008
410,7635	82,6596
411,7277	83,2312
412,6919	83,7583
413,6562	83,7292
414,6204	82,9522
415,5846	81,5155
416,5489	79,736
417,5131	78,2361
418,4773	77,8937
419,4416	79,0199
420,4058	80,553
421,3700	81,1759
422,3343	80,5197
423,2985	78,8901
424,2627	76,8009
425,2270	74,8097
426,1912	73,4018
427,1554	72,847
428,1197	73,1349
429,0839	74,0365
430,0481	75,2225
431,0124	76,3752
431,9766	77,2798
432,9408	77,872
433,9051	78,2165
434,8693	78,4227
435,8335	78,5493
436,7978	78,5613
437,7620	78,3696
438,7262	77,9104
439,6905	77,1961
440,6547	76,3115
441,6189	75,3688
442,5832	74,4361
443,5474	73,4802
444,5116	72,3899
445,4759	71,0967
446,4401	69,696
447,4043	68,4609
448,3686	67,7499
449,3328	67,8626
450,2970	68,8903
451,2613	70,6174
452,2255	72,5412
453,1897	74,0316
454,1540	74,5431
455,1182	73,7755
456,0824	71,783
457,0467	69,0611
458,0109	66,4769
458,9751	64,8473
459,9394	64,4342
460,9036	64,9231
461,8678	65,8129
462,8321	66,7201
463,7963	67,4406
464,7605	67,8924
465,7248	68,0488
466,6890	67,8949
467,6532	67,4156
468,6175	66,6096
469,5817	65,5206
470,5459	64,2767
471,5102	63,1062
472,4744	62,2788
473,4386	61,9705
474,4029	62,1737
475,3671	62,7407
476,3313	63,4812
477,2956	64,208
478,2598	64,7404
479,2240	64,9243
480,1883	64,6888
481,1525	64,1077
482,1167	63,4106
483,0810	62,9116
484,0452	62,8638
485,0094	63,3141
485,9737	64,0792
486,9379	64,8739
487,9021	65,4685
488,8664	65,7536
489,8306	65,7211
490,7948	65,4315
491,7591	64,9952
492,7233	64,5466
493,6875	64,1848
494,6518	63,9085
495,6160	63,6098
496,5802	63,163
497,5445	62,569
498,5087	62,0655
499,4729	62,0993
500,4372	63,101
501,4014	65,1141
502,3656	67,5321
503,3299	69,2839
504,2941	69,4666
505,2583	67,9252
506,2226	65,321
507,1868	62,7225
508,1510	61,0502
509,1153	60,6795
510,0795	61,3789
511,0437	62,5708
512,0080	63,6977
512,9722	64,451
513,9365	64,7755
514,9007	64,7478
515,8649	64,4642
516,8292	64,0112
517,7934	63,4954
518,7576	63,0502
519,7219	62,7772
520,6861	62,6857
521,6503	62,7049
522,6146	62,7441
523,5788	62,7457
524,5430	62,7077
525,5073	62,6737
526,4715	62,6936
527,4357	62,7788
528,4000	62,8919
529,3642	62,9729
530,3284	62,9678
531,2927	62,8431
532,2569	62,5911
533,2211	62,2367
534,1854	61,8413
535,1496	61,4942
536,1138	61,2884
537,0781	61,2847
538,0423	61,4805
539,0065	61,7996
539,9708	62,1156
540,9350	62,3039
541,8992	62,2944
542,8635	62,0985
543,8277	61,7978
544,7919	61,5015
545,7562	61,2921
546,7204	61,1885
547,6846	61,1458
548,6489	61,0938
549,6131	60,9855
550,5773	60,8236
551,5416	60,6536
552,5058	60,5345
553,4700	60,5105
554,4343	60,5977
555,3985	60,7847
556,3627	61,0396
557,3270	61,3149
558,2912	61,5475
559,2554	61,6654
560,2197	61,606
561,1839	61,3474
562,1481	60,9345
563,1124	60,4797
564,0766	60,124
565,0408	59,9764
566,0051	60,0584
566,9693	60,2868
567,9335	60,5111
568,8978	60,5971
569,8620	60,5077
570,8262	60,3178
571,7905	60,1536
572,7547	60,105
573,7189	60,1703
574,6832	60,2575
575,6474	60,2424
576,6116	60,0507
577,5759	59,7096
578,5401	59,3309
579,5043	59,0432
580,4686	58,9295
581,4328	59,0043
582,3970	59,2303
583,3613	59,552
584,3255	59,9201
585,2897	60,2956
586,2540	60,6437
587,2182	60,9355
588,1824	61,1615
589,1467	61,347
590,1109	61,55
591,0751	61,8332
592,0394	62,2189
593,0036	62,6622
593,9678	63,0719
594,9321	63,3671
595,8963	63,5245
596,8605	63,5855
597,8248	63,6304
598,7890	63,735
599,7532	63,9311
600,7175	64,1893
601,6817	64,4362
602,6459	64,5957
603,6102	64,6266
604,5744	64,5385
605,5386	64,3823
606,5029	64,2252
607,4671	64,1232
608,4313	64,1035
609,3956	64,1633
610,3598	64,2818
611,3240	64,4352
612,2883	64,6041
613,2525	64,7729
614,2167	64,9249
615,1810	65,0412
616,1452	65,1089
617,1094	65,1304
618,0737	65,1256
619,0379	65,1207
620,0021	65,1329
620,9664	65,165
621,9306	65,2119
622,8948	65,2742
623,8591	65,3644
624,8233	65,4993
625,7875	65,6833
626,7518	65,8936
627,7160	66,0869
628,6802	66,2223
629,6445	66,2868
630,6087	66,3024
631,5729	66,3123
632,5372	66,3534
633,5014	66,4321
634,4656	66,5234
635,4299	66,5939
636,3941	66,6327
637,3583	66,6631
638,3226	66,7251
639,2868	66,8424
640,2510	67,0006
641,2153	67,1529
642,1795	67,2498
643,1437	67,2694
644,1080	67,2247
645,0722	67,1464
646,0364	67,0565
647,0007	66,956
647,9649	66,8344
648,9291	66,6907
649,8934	66,5447
650,8576	66,4288
651,8218	66,3686
652,7861	66,371
653,7503	66,428
654,7145	66,5286
655,6788	66,6659
656,6430	66,8355
657,6072	67,0292
658,5715	67,2333
659,5357	67,4316
660,4999	67,6108
661,4642	67,7636
662,4284	67,8875
663,3926	67,9831
664,3569	68,0553
665,3211	68,1196
666,2853	68,2114
667,2496	68,383
668,2138	68,657
669,1780	68,9677
670,1423	69,2172
671,1065	69,3739
672,0707	69,465
673,0350	69,5324
673,9992	69,6132
674,9634	69,7312
675,9277	69,8878
676,8919	70,0594
677,8561	70,2097
678,8204	70,3103
679,7846	70,3539
680,7488	70,3537
681,7131	70,3355
682,6773	70,3267
683,6415	70,349
684,6058	70,4174
685,5700	70,5406
686,5342	70,7168
687,4985	70,9262
688,4627	71,1269
689,4269	71,2658
690,3912	71,3036
691,3554	71,2393
692,3196	71,1145
693,2839	70,9926
694,2481	70,9222
695,2123	70,9097
696,1766	70,9181
697,1408	70,8949
698,1050	70,8108
699,0693	70,6806
700,0335	70,5513
700,9977	70,4677
701,9620	70,4417
702,9262	70,4469
703,8904	70,4395
704,8547	70,3904
705,8189	70,3026
706,7831	70,2041
707,7474	70,1227
708,7116	70,0641
709,6758	70,0108
710,6401	69,9382
711,6043	69,8346
712,5685	69,7102
713,5328	69,5894
714,4970	69,4955
715,4612	69,4308
716,4255	69,4039
717,3897	69,3902
718,3539	69,3685
719,3182	69,3192
720,2824	69,2288
721,2466	69,0952
722,2109	68,9287
723,1751	68,7472
724,1393	68,5661
725,1036	68,3901
726,0678	68,2107
727,0320	68,0138
727,9963	67,791
728,9605	67,5471
729,9247	67,298
730,8890	67,0597
731,8532	66,8357
732,8174	66,6138
733,7817	66,3732
734,7459	66,0967
735,7101	65,782
736,6744	65,4433
737,6386	65,1077
738,6028	64,8078
739,5671	64,5777
740,5313	64,4503
741,4955	64,4569
742,4598	64,6232
743,4240	64,962
744,3882	65,4653
745,3525	66,0999
746,3167	66,8122
747,2809	67,541
748,2452	68,2338
749,2094	68,8587
750,1736	69,4056
751,1379	69,8772
752,1021	70,2761
753,0663	70,5985
754,0306	70,8378
754,9948	70,9953
755,9590	71,0873
756,9233	71,1424
757,8875	71,1873
758,8517	71,2318
759,8160	71,2633
760,7802	71,254
761,7444	71,1783
762,7087	71,0275
763,6729	70,8155
764,6371	70,5724
765,6014	70,3322
766,5656	70,1209
767,5298	69,9512
768,4941	69,8228
769,4583	69,7256
770,4225	69,6451
771,3868	69,567
772,3510	69,4835
773,3152	69,3979
774,2795	69,327
775,2437	69,2982
776,2079	69,3403
777,1722	69,4726
778,1364	69,6975
779,1006	70,0002
780,0649	70,3569
781,0291	70,7475
781,9933	71,1648
782,9576	71,6165
783,9218	72,1168
784,8860	72,674
785,8503	73,2796
786,8145	73,9072
787,7787	74,5218
788,7430	75,0972
789,7072	75,629
790,6714	76,1378
791,6357	76,6572
792,5999	77,2129
793,5641	77,806
794,5284	78,4099
795,4926	78,9838
796,4568	79,4946
797,4211	79,9339
798,3853	80,3201
799,3495	80,6869
800,3138	81,0664
801,2780	81,4787
802,2422	81,9314
803,2065	82,4254
804,1707	82,9587
805,1349	83,5251
806,0992	84,1117
807,0634	84,6996
808,0276	85,2702
808,9919	85,8145
809,9561	86,336
810,9203	86,8475
811,8846	87,3626
812,8488	87,8884
813,8130	88,4229
814,7773	88,9578
815,7415	89,4819
816,7057	89,9841
817,6700	90,4546
818,6342	90,8865
819,5984	91,2777
820,5627	91,6313
821,5269	91,9545
822,4911	92,2548
823,4554	92,5367
824,4196	92,8008
825,3839	93,0449
826,3481	93,2671
827,3123	93,4677
828,2766	93,651
829,2408	93,8246
830,2050	93,9989
831,1693	94,1819
832,1335	94,3758
833,0977	94,5731
834,0620	94,759
835,0262	94,9191
835,9904	95,0472
836,9547	95,1498
837,9189	95,2418
838,8831	95,3365
839,8474	95,4364
840,8116	95,531
841,7758	95,602
842,7401	95,633
843,7043	95,6158
844,6685	95,5516
845,6328	95,4482
846,5970	95,3161
847,5612	95,1668
848,5255	95,0123
849,4897	94,8647
850,4539	94,7333
851,4182	94,6221
852,3824	94,5296
853,3466	94,4514
854,3109	94,3863
855,2751	94,3405
856,2393	94,3278
857,2036	94,3646
858,1678	94,4616
859,1320	94,6179
860,0963	94,8206
861,0605	95,0503
862,0247	95,2892
862,9890	95,5271
863,9532	95,7612
864,9174	95,9918
865,8817	96,2176
866,8459	96,4328
867,8101	96,629
868,7744	96,7984
869,7386	96,9366
870,7028	97,0438
871,6671	97,125
872,6313	97,1904
873,5955	97,2533
874,5598	97,3283
875,5240	97,4258
876,4882	97,5482
877,4525	97,6885
878,4167	97,8344
879,3809	97,9736
880,3452	98,0994
881,3094	98,2115
882,2736	98,3134
883,2379	98,408
884,2021	98,4952
885,1663	98,5724
886,1306	98,6366
887,0948	98,6874
888,0590	98,728
889,0233	98,7646
889,9875	98,8036
890,9517	98,8488
891,9160	98,8981
892,8802	98,9438
893,8444	98,9762
894,8087	98,9885
895,7729	98,9808
896,7371	98,9605
897,7014	98,938
898,6656	98,9337
899,6298	98,9675
900,5941	99,0013
901,5583	99,0273
902,5225	99,0392
903,4868	99,0347
904,4510	99,0146
905,4152	98,982
906,3795	98,9405
907,3437	98,8929
908,3079	98,8396
909,2722	98,7766
910,2364	98,6956
911,2006	98,5871
912,1649	98,4447
913,1291	98,27
914,0933	98,0726
915,0576	97,8669
916,0218	97,6658
916,9860	97,4769
917,9503	97,3016
918,9145	97,1372
919,8787	96,9799
920,8430	96,8261
921,8072	96,6723
922,7714	96,5153
923,7357	96,3535
924,6999	96,1882
925,6641	96,0239
926,6284	95,8658
927,5926	95,7152
928,5568	95,5665
929,5211	95,4079
930,4853	95,2262
931,4495	95,0132
932,4138	94,7694
933,3780	94,5033
934,3422	94,2269
935,3065	93,9505
936,2707	93,6801
937,2349	93,4182
938,1992	93,1651
939,1634	92,9198
940,1276	92,6795
941,0919	92,4394
942,0561	92,1943
943,0203	91,9423
943,9846	91,6889
944,9488	91,4473
945,9130	91,2347
946,8773	91,0652
947,8415	90,9431
948,8057	90,8609
949,7700	90,8021
950,7342	90,7481
951,6984	90,6837
952,6627	90,6008
953,6269	90,4983
954,5911	90,3783
955,5554	90,243
956,5196	90,0917
957,4838	89,9199
958,4481	89,7216
959,4123	89,4943
960,3765	89,2428
961,3408	88,9822
962,3050	88,7343
963,2692	88,5207
964,2335	88,3545
965,1977	88,2356
966,1619	88,1523
967,1262	88,0885
968,0904	88,0314
969,0546	87,9761
970,0189	87,925
970,9831	87,8835
971,9473	87,8556
972,9116	87,8418
973,8758	87,8395
974,8400	87,8437
975,8043	87,8471
976,7685	87,8398
977,7327	87,8098
978,6970	87,7464
979,6612	87,6437
980,6254	87,5028
981,5897	87,3307
982,5539	87,1355
983,5181	86,922
984,4824	86,69
985,4466	86,4368
986,4108	86,1625
987,3751	85,8741
988,3393	85,5859
989,3035	85,3157
990,2678	85,0786
991,2320	84,8818
992,1962	84,7217
993,1605	84,5862
994,1247	84,4589
995,0889	84,3251
996,0532	84,1765
997,0174	84,0135
997,9816	83,8426
998,9459	83,6728
999,9101	83,5088
1000,8743	83,3479
1001,8386	83,1808
1002,8028	82,9967
1003,7670	82,7907
1004,7313	82,5686
1005,6955	82,3452
1006,6597	82,1371
1007,6240	81,9531
1008,5882	81,7885
1009,5524	81,6254
1010,5167	81,4403
1011,4809	81,2143
1012,4451	80,9399
1013,4094	80,6228
1014,3736	80,2769
1015,3378	79,9184
1016,3021	79,5598
1017,2663	79,2078
1018,2305	78,8634
1019,1948	78,5228
1020,1590	78,1795
1021,1232	77,8244
1022,0875	77,4477
1023,0517	77,0406
1024,0160	76,5981
1024,9802	76,1202
1025,9445	75,6117
1026,9087	75,0798
1027,8729	74,532
1028,8372	73,9739
1029,8014	73,4095
1030,7656	72,8417
1031,7299	72,273
1032,6941	71,7042
1033,6583	71,133
1034,6226	70,5553
1035,5868	69,9671
1036,5510	69,3696
1037,5153	68,7701
1038,4795	68,1807
1039,4437	67,6138
1040,4080	67,0774
1041,3722	66,5753
1042,3364	66,1113
1043,3007	65,6943
1044,2649	65,3413
1045,2291	65,0745
1046,1934	64,9154
1047,1576	64,8782
1048,1218	64,9672
1049,0861	65,1759
1050,0503	65,4895
1051,0145	65,8864
1051,9788	66,34
1052,9430	66,8214
1053,9072	67,3017
1054,8715	67,7557
1055,8357	68,164
1056,7999	68,513
1057,7642	68,7951
1058,7284	69,0074
1059,6926	69,1522
1060,6569	69,2361
1061,6211	69,269
1062,5853	69,2615
1063,5496	69,2236
1064,5138	69,1638
1065,4780	69,0901
1066,4423	69,0102
1067,4065	68,9314
1068,3707	68,8597
1069,3350	68,7989
1070,2992	68,7492
1071,2634	68,708
1072,2277	68,6693
1073,1919	68,6238
1074,1561	68,5612
1075,1204	68,473
1076,0846	68,3574
1077,0488	68,2222
1078,0131	68,0823
1078,9773	67,9532
1079,9415	67,8427
1080,9058	67,7465
1081,8700	67,6514
1082,8342	67,5434
1083,7985	67,4175
1084,7627	67,2816
1085,7269	67,1522
1086,6912	67,0456
1087,6554	66,9678
1088,6196	66,9101
1089,5839	66,8522
1090,5481	66,7699
1091,5123	66,6444
1092,4766	66,4685
1093,4408	66,248
1094,4050	65,9993
1095,3693	65,7428
1096,3335	65,4974
1097,2977	65,2755
1098,2620	65,0821
1099,2262	64,9161
1100,1904	64,7747
1101,1547	64,6568
1102,1189	64,5653
1103,0831	64,5051
1104,0474	64,4804
1105,0116	64,4907
1105,9758	64,5296
1106,9401	64,586
1107,9043	64,6479
1108,8685	64,7047
1109,8328	64,75
1110,7970	64,7809
1111,7612	64,7974
1112,7255	64,8016
1113,6897	64,7971
1114,6539	64,7882
1115,6182	64,7787
1116,5824	64,7699
1117,5466	64,759
1118,5109	64,7399
1119,4751	64,706
1120,4393	64,6538
1121,4036	64,5863
1122,3678	64,513
1123,3320	64,4462
1124,2963	64,3965
1125,2605	64,3683
1126,2247	64,358
1127,1890	64,3557
1128,1532	64,3492
1129,1174	64,3282
1130,0817	64,2872
1131,0459	64,2261
1132,0101	64,1497
1132,9744	64,0651
1133,9386	63,9796
1134,9028	63,8985
1135,8671	63,8242
1136,8313	63,7555
1137,7955	63,6881
1138,7598	63,6152
1139,7240	63,5288
1140,6882	63,4225
1141,6525	63,2921
1142,6167	63,1373
1143,5809	62,9607
1144,5452	62,7665
1145,5094	62,5585
1146,4736	62,3399
1147,4379	62,1142
1148,4021	61,8878
1149,3663	61,6713
1150,3306	61,4799
1151,2948	61,3315
1152,2590	61,2426
1153,2233	61,2234
1154,1875	61,2736
1155,1517	61,3807
1156,1160	61,5225
1157,0802	61,672
1158,0444	61,8052
1159,0087	61,9058
1159,9729	61,9671
1160,9371	61,989
1161,9014	61,9721
1162,8656	61,915
1163,8298	61,8136
1164,7941	61,6647
1165,7583	61,4702
1166,7225	61,2384
1167,6868	60,9817
1168,6510	60,7125
1169,6152	60,4385
1170,5795	60,1625
1171,5437	59,8834
1172,5079	59,6009
1173,4722	59,3172
1174,4364	59,0378
1175,4006	58,7698
1176,3649	58,5195
1177,3291	58,2909
1178,2933	58,0854
1179,2576	57,902
1180,2218	57,7371
1181,1860	57,585
1182,1503	57,4392
1183,1145	57,294
1184,0787	57,1464
1185,0430	56,9971
1186,0072	56,8494
1186,9714	56,7073
1187,9357	56,5739
1188,8999	56,4503
1189,8641	56,3373
1190,8284	56,2359
1191,7926	56,148
1192,7568	56,0758
1193,7211	56,0199
1194,6853	55,9796
1195,6495	55,9529
1196,6138	55,9372
1197,5780	55,9301
1198,5422	55,9278
1199,5065	55,9247
1200,4707	55,9124
1201,4349	55,8817
1202,3992	55,8236
1203,3634	55,7318
1204,3276	55,6036
1205,2919	55,4393
1206,2561	55,2422
1207,2203	55,0167
1208,1846	54,7682
1209,1488	54,5023
1210,1130	54,2255
1211,0773	53,9458
1212,0415	53,6738
1213,0057	53,4217
1213,9700	53,2015
1214,9342	53,0227
1215,8984	52,89
1216,8627	52,8034
1217,8269	52,7585
1218,7911	52,7479
1219,7554	52,7624
1220,7196	52,7913
1221,6838	52,8235
1222,6481	52,8484
1223,6123	52,8577
1224,5765	52,8474
1225,5408	52,8189
1226,5050	52,7764
1227,4692	52,7236
1228,4335	52,6607
1229,3977	52,5844
1230,3619	52,491
1231,3262	52,3803
1232,2904	52,2577
1233,2546	52,1313
1234,2189	52,0072
1235,1831	51,8866
1236,1473	51,7657
1237,1116	51,6403
1238,0758	51,5094
1239,0400	51,3761
1240,0043	51,2445
1240,9685	51,1164
1241,9327	50,9894
1242,8970	50,8587
1243,8612	50,7213
1244,8254	50,5779
1245,7897	50,4328
1246,7539	50,291
1247,7181	50,1558
1248,6824	50,0276
1249,6466	49,9057
1250,6108	49,7888
1251,5751	49,6767
1252,5393	49,57
1253,5035	49,4687
1254,4678	49,3717
1255,4320	49,2752
1256,3962	49,1726
1257,3605	49,056
1258,3247	48,9198
1259,2889	48,7639
1260,2532	48,5959
1261,2174	48,4273
1262,1816	48,2672
1263,1459	48,117
1264,1101	47,9693
1265,0743	47,8136
1266,0386	47,6421
1267,0028	47,4543
1267,9670	47,2564
1268,9313	47,0563
1269,8955	46,8588
1270,8597	46,6627
1271,8240	46,4623
1272,7882	46,2504
1273,7524	46,0206
1274,7167	45,7693
1275,6809	45,4938
1276,6451	45,1924
1277,6094	44,8637
1278,5736	44,5081
1279,5378	44,1285
1280,5021	43,7318
1281,4663	43,3276
1282,4305	42,9268
1283,3948	42,5386
1284,3590	42,1695
1285,3232	41,8237
1286,2875	41,5061
1287,2517	41,2241
1288,2159	40,9887
1289,1802	40,8112
1290,1444	40,6997
1291,1086	40,6565
1292,0729	40,6789
1293,0371	40,7622
1294,0013	40,9006
1294,9656	41,0866
1295,9298	41,3094
1296,8940	41,5547
1297,8583	41,806
1298,8225	42,0486
1299,7867	42,272
1300,7510	42,4699
1301,7152	42,6389
1302,6794	42,7765
1303,6437	42,8802
1304,6079	42,9482
1305,5721	42,9808
1306,5364	42,9813
1307,5006	42,9558
1308,4648	42,9106
1309,4291	42,8503
1310,3933	42,7771
1311,3575	42,6915
1312,3218	42,5942
1313,2860	42,4862
1314,2502	42,3686
1315,2145	42,2407
1316,1787	42,1007
1317,1429	41,9467
1318,1072	41,7801
1319,0714	41,606
1320,0356	41,4317
1320,9999	41,263
1321,9641	41,1022
1322,9283	40,9491
1323,8926	40,8031
1324,8568	40,6638
1325,8210	40,5311
1326,7853	40,4038
1327,7495	40,2799
1328,7137	40,1577
1329,6780	40,0373
1330,6422	39,9206
1331,6064	39,8099
1332,5707	39,7056
1333,5349	39,6048
1334,4991	39,5011
1335,4634	39,385
1336,4276	39,2433
1337,3918	39,0628
1338,3561	38,8362
1339,3203	38,5718
1340,2845	38,2914
1341,2488	38,0145
1342,2130	37,7457
1343,1772	37,4766
1344,1415	37,1956
1345,1057	36,8945
1346,0699	36,5716
1347,0342	36,2319
1347,9984	35,8846
1348,9626	35,5412
1349,9269	35,2124
1350,8911	34,9064
1351,8553	34,6289
1352,8196	34,3854
1353,7838	34,1841
1354,7480	34,0364
1355,7123	33,9523
1356,6765	33,9348
1357,6407	33,9775
1358,6050	34,0704
1359,5692	34,2057
1360,5334	34,3784
1361,4977	34,5791
1362,4619	34,7866
1363,4261	34,973
1364,3904	35,1203
1365,3546	35,2267
1366,3188	35,2998
1367,2831	35,3472
1368,2473	35,3738
1369,2115	35,3822
1370,1758	35,3729
1371,1400	35,3437
1372,1042	35,29
1373,0685	35,2087
1374,0327	35,1039
1374,9969	34,9896
1375,9612	34,8815
1376,9254	34,7863
1377,8896	34,7011
1378,8539	34,6216
1379,8181	34,5488
1380,7823	34,4894
1381,7466	34,4499
1382,7108	34,4323
1383,6750	34,4344
1384,6393	34,4568
1385,6035	34,5076
1386,5677	34,5998
1387,5320	34,7385
1388,4962	34,9129
1389,4604	35,1088
1390,4247	35,3245
1391,3889	35,5737
1392,3531	35,8758
1393,3174	36,2432
1394,2816	36,6693
1395,2458	37,1273
1396,2101	37,5891
1397,1743	38,0443
1398,1385	38,4952
1399,1028	38,9361
1400,0670	39,3501
1401,0313	39,7237
1401,9955	40,058
1402,9597	40,3666
1403,9240	40,6632
1404,8882	40,9479
1405,8524	41,2051
1406,8167	41,4165
1407,7809	41,5754
1408,7451	41,6871
1409,7094	41,7589
1410,6736	41,7941
1411,6378	41,7954
1412,6021	41,7695
1413,5663	41,7255
1414,5305	41,6667
1415,4948	41,5821
1416,4590	41,4459
1417,4232	41,2319
1418,3875	40,9492
1419,3517	40,6561
1420,3159	40,4061
1421,2802	40,1962
1422,2444	39,9886
1423,2086	39,754
1424,1729	39,4897
1425,1371	39,214
1426,1013	38,9445
1427,0656	38,6826
1428,0298	38,416
1428,9940	38,138
1429,9583	37,8644
1430,9225	37,6295
1431,8867	37,4596
1432,8510	37,3574
1433,8152	37,3097
1434,7794	37,3045
1435,7437	37,3386
1436,7079	37,4113
1437,6721	37,5107
1438,6364	37,6147
1439,6006	37,7058
1440,5648	37,775
1441,5291	37,8172
1442,4933	37,8264
1443,4575	37,7953
1444,4218	37,7162
1445,3860	37,582
1446,3502	37,3893
1447,3145	37,1441
1448,2787	36,8665
1449,2429	36,5861
1450,2072	36,3277
1451,1714	36,1023
1452,1356	35,9088
1453,0999	35,7392
1454,0641	35,5762
1455,0283	35,3794
1455,9926	35,0768
1456,9568	34,6349
1457,9210	34,185
1458,8853	33,8793
1459,8495	33,7068
1460,8137	33,5911
1461,7780	33,4727
1462,7422	33,3118
1463,7064	33,0893
1464,6707	32,8241
1465,6349	32,5746
1466,5991	32,3914
1467,5634	32,279
1468,5276	32,2119
1469,4918	32,1634
1470,4561	32,1148
1471,4203	32,0555
1472,3845	31,984
1473,3488	31,913
1474,3130	31,8587
1475,2772	31,8222
1476,2415	31,7922
1477,2057	31,7577
1478,1699	31,711
1479,1342	31,6472
1480,0984	31,5654
1481,0626	31,4685
1482,0269	31,3641
1482,9911	31,2611
1483,9553	31,1664
1484,9196	31,082
1485,8838	31,0039
1486,8480	30,923
1487,8123	30,8281
1488,7765	30,7171
1489,7407	30,6061
1490,7050	30,5116
1491,6692	30,4291
1492,6334	30,3407
1493,5977	30,2261
1494,5619	30,0623
1495,5261	29,8184
1496,4904	29,461
1497,4546	28,9854
1498,4188	28,449
1499,3831	27,9324
1500,3473	27,4757
1501,3115	27,0773
1502,2758	26,7205
1503,2400	26,3816
1504,2042	26,0157
1505,1685	25,5208
1506,1327	24,7153
1507,0969	23,5471
1508,0612	22,4467
1509,0254	21,7601
1509,9896	21,3446
1510,9539	21,011
1511,9181	20,6765
1512,8823	20,3144
1513,8466	19,9173
1514,8108	19,4901
1515,7750	19,0543
1516,7393	18,646
1517,7035	18,2975
1518,6677	18,015
1519,6320	17,7743
1520,5962	17,5395
1521,5604	17,2926
1522,5247	17,0484
1523,4889	16,8356
1524,4531	16,6704
1525,4174	16,5515
1526,3816	16,4686
1527,3458	16,4111
1528,3101	16,3725
1529,2743	16,3516
1530,2385	16,3513
1531,2028	16,3766
1532,1670	16,4291
1533,1312	16,4995
1534,0955	16,5686
1535,0597	16,6226
1536,0239	16,6618
1536,9882	16,696
1537,9524	16,7393
1538,9166	16,82
1539,8809	16,9949
1540,8451	17,3119
1541,8093	17,6959
1542,7736	18,0337
1543,7378	18,3178
1544,7020	18,5843
1545,6663	18,8581
1546,6305	19,1521
1547,5947	19,4735
1548,5590	19,8279
1549,5232	20,2196
1550,4874	20,6464
1551,4517	21,093
1552,4159	21,5304
1553,3801	21,9273
1554,3444	22,2665
1555,3086	22,56
1556,2728	22,8751
1557,2371	23,3715
1558,2013	24,2036
1559,1655	25,1472
1560,1298	25,8095
1561,0940	26,1985
1562,0582	26,4839
1563,0225	26,7651
1563,9867	27,0737
1564,9509	27,4099
1565,9152	27,7694
1566,8794	28,1635
1567,8436	28,6195
1568,8079	29,1444
1569,7721	29,6822
1570,7363	30,1455
1571,7006	30,4931
1572,6648	30,751
1573,6290	30,987
1574,5933	31,2865
1575,5575	31,712
1576,5217	32,2262
1577,4860	32,6976
1578,4502	33,0482
1579,4144	33,3098
1580,3787	33,5465
1581,3429	33,7989
1582,3071	34,0764
1583,2714	34,3661
1584,2356	34,6499
1585,1998	34,9207
1586,1641	35,186
1587,1283	35,4573
1588,0925	35,7407
1589,0568	36,0342
1590,0210	36,3336
1590,9852	36,6387
1591,9495	36,9537
1592,9137	37,283
1593,8779	37,6258
1594,8422	37,9746
1595,8064	38,3178
1596,7706	38,645
1597,7349	38,9506
1598,6991	39,2345
1599,6633	39,4994
1600,6276	39,7476
1601,5918	39,9775
1602,5560	40,1819
1603,5203	40,3518
1604,4845	40,4821
1605,4487	40,5743
1606,4130	40,6316
1607,3772	40,6522
1608,3414	40,6266
1609,3057	40,5467
1610,2699	40,4184
1611,2341	40,261
1612,1984	40,0923
1613,1626	39,9146
1614,1268	39,7073
1615,0911	39,4311
1616,0553	39,0622
1617,0195	38,6414
1617,9838	38,2514
1618,9480	37,9283
1619,9122	37,6453
1620,8765	37,3562
1621,8407	37,028
1622,8049	36,6617
1623,7692	36,296
1624,7334	35,9733
1625,6976	35,6976
1626,6619	35,4381
1627,6261	35,1676
1628,5903	34,8883
1629,5546	34,6242
1630,5188	34,3954
1631,4830	34,2035
1632,4473	34,0364
1633,4115	33,8799
1634,3757	33,7289
1635,3400	33,5943
1636,3042	33,4933
1637,2684	33,4241
1638,2327	33,3733
1639,1969	33,3367
1640,1611	33,3165
1641,1254	33,3115
1642,0896	33,3183
1643,0538	33,3429
1644,0181	33,4208
1644,9823	33,6314
1645,9465	34,0525
1646,9108	34,6215
1647,8750	35,1232
1648,8392	35,4318
1649,8035	35,6077
1650,7677	35,8194
1651,7319	36,3351
1652,6962	37,4588
1653,6604	39,0451
1654,6246	40,3911
1655,5889	41,2403
1656,5531	41,8238
1657,5173	42,3517
1658,4816	42,929
1659,4458	43,6255
1660,4100	44,514
1661,3743	45,6367
1662,3385	46,9102
1663,3027	48,1235
1664,2670	49,1098
1665,2312	49,8651
1666,1954	50,5066
1667,1597	51,1991
1668,1239	52,0981
1669,0881	53,2487
1670,0524	54,4837
1671,0166	55,5498
1671,9808	56,3782
1672,9451	57,1054
1673,9093	57,9033
1674,8735	58,8545
1675,8378	59,9085
1676,8020	60,9323
1677,7662	61,8251
1678,7305	62,5776
1679,6947	63,248
1680,6589	63,9389
1681,6232	64,8109
1682,5874	66,0692
1683,5516	67,7578
1684,5159	69,493
1685,4801	70,8307
1686,4443	71,7721
1687,4086	72,5514
1688,3728	73,3323
1689,3370	74,1497
1690,3013	74,9579
1691,2655	75,7003
1692,2297	76,362
1693,1940	76,9844
1694,1582	77,6451
1695,1224	78,4169
1696,0867	79,3201
1697,0509	80,2991
1698,0151	81,2707
1698,9794	82,2003
1699,9436	83,0875
1700,9078	83,9013
1701,8721	84,6007
1702,8363	85,197
1703,8005	85,7634
1704,7648	86,3909
1705,7290	87,1196
1706,6932	87,9001
1707,6575	88,6362
1708,6217	89,2714
1709,5859	89,8192
1710,5502	90,3249
1711,5144	90,8196
1712,4786	91,3049
1713,4429	91,7667
1714,4071	92,2083
1715,3713	92,6801
1716,3356	93,2478
1717,2998	93,8712
1718,2640	94,4026
1719,2283	94,777
1720,1925	95,0469
1721,1567	95,2857
1722,1210	95,5378
1723,0852	95,8126
1724,0494	96,0946
1725,0137	96,3609
1725,9779	96,5987
1726,9421	96,8094
1727,9064	96,9997
1728,8706	97,1733
1729,8348	97,3308
1730,7991	97,4767
1731,7633	97,6259
1732,7275	97,7935
1733,6918	97,9696
1734,6560	98,1175
1735,6202	98,216
1736,5845	98,2781
1737,5487	98,3278
1738,5129	98,3833
1739,4772	98,451
1740,4414	98,5269
1741,4056	98,601
1742,3699	98,6655
1743,3341	98,7187
1744,2983	98,7622
1745,2626	98,7961
1746,2268	98,818
1747,1910	98,8272
1748,1553	98,8291
1749,1195	98,8366
1750,0837	98,8608
1751,0480	98,8996
1752,0122	98,9408
1752,9764	98,9742
1753,9407	98,9963
1754,9049	99,0079
1755,8691	99,0115
1756,8334	99,0096
1757,7976	99,0039
1758,7618	98,9952
1759,7261	98,9834
1760,6903	98,9692
1761,6545	98,9538
1762,6188	98,9386
1763,5830	98,9238
1764,5472	98,9084
1765,5115	98,8906
1766,4757	98,869
1767,4399	98,8427
1768,4042	98,8126
1769,3684	98,7824
1770,3326	98,7593
1771,2969	98,7521
1772,2611	98,7627
1773,2253	98,7815
1774,1896	98,7946
1775,1538	98,7947
1776,1180	98,7824
1777,0823	98,7615
1778,0465	98,737
1779,0107	98,7146
1779,9750	98,6992
1780,9392	98,6941
1781,9034	98,7164
1782,8677	98,7625
1783,8319	98,8032
1784,7961	98,8315
1785,7604	98,8462
1786,7246	98,8517
1787,6888	98,8555
1788,6531	98,8635
1789,6173	98,8772
1790,5815	98,8931
1791,5458	98,9041
1792,5100	98,906
1793,4742	98,9037
1794,4385	98,9059
1795,4027	98,9165
1796,3669	98,9329
1797,3312	98,9489
1798,2954	98,957
1799,2596	98,952
1800,2239	98,9341
1801,1881	98,9101
1802,1523	98,8887
1803,1166	98,8748
1804,0808	98,8675
1805,0450	98,8626
1806,0093	98,8565
1806,9735	98,8478
1807,9377	98,8382
1808,9020	98,8318
1809,8662	98,8334
1810,8304	98,8446
1811,7947	98,8619
1812,7589	98,8781
1813,7231	98,8869
1814,6874	98,8847
1815,6516	98,8709
1816,6158	98,8469
1817,5801	98,8151
1818,5443	98,7778
1819,5085	98,7367
1820,4728	98,6937
1821,4370	98,6522
1822,4012	98,618
1823,3655	98,5969
1824,3297	98,5912
1825,2939	98,5963
1826,2582	98,6031
1827,2224	98,6033
1828,1866	98,593
1829,1509	98,5732
1830,1151	98,5469
1831,0793	98,5172
1832,0436	98,4866
1833,0078	98,4572
1833,9720	98,4314
1834,9363	98,411
1835,9005	98,3952
1836,8647	98,3799
1837,8290	98,3595
1838,7932	98,3302
1839,7574	98,2928
1840,7217	98,2511
1841,6859	98,2098
1842,6501	98,1735
1843,6144	98,1447
1844,5786	98,1218
1845,5428	98,0991
1846,5071	98,071
1847,4713	98,0361
1848,4355	97,9968
1849,3998	97,9586
1850,3640	97,9279
1851,3282	97,9091
1852,2925	97,9025
1853,2567	97,9027
1854,2209	97,9015
1855,1852	97,8917
1856,1494	97,871
1857,1136	97,8432
1858,0779	97,8151
1859,0421	97,7926
1860,0063	97,7775
1860,9706	97,7666
1861,9348	97,7543
1862,8990	97,7354
1863,8633	97,7078
1864,8275	97,6727
1865,7917	97,6351
1866,7560	97,6041
1867,7202	97,5884
1868,6844	97,5875
1869,6487	97,5866
1870,6129	97,5676
1871,5771	97,5235
1872,5414	97,4602
1873,5056	97,3907
1874,4698	97,3289
1875,4341	97,284
1876,3983	97,2565
1877,3625	97,238
1878,3268	97,2168
1879,2910	97,1857
1880,2552	97,1452
1881,2195	97,1009
1882,1837	97,0592
1883,1479	97,0235
1884,1122	96,994
1885,0764	96,9682
1886,0406	96,9422
1887,0049	96,9102
1887,9691	96,8652
1888,9333	96,8025
1889,8976	96,7241
1890,8618	96,6404
1891,8260	96,5647
1892,7903	96,5066
1893,7545	96,469
1894,7188	96,4476
1895,6830	96,4334
1896,6472	96,4158
1897,6115	96,3877
1898,5757	96,3474
1899,5399	96,2983
1900,5042	96,246
1901,4684	96,1953
1902,4326	96,1489
1903,3969	96,107
1904,3611	96,0685
1905,3253	96,0327
1906,2896	95,9998
1907,2538	95,9698
1908,2180	95,9402
1909,1823	95,9052
1910,1465	95,8577
1911,1107	95,7938
1912,0750	95,7158
1913,0392	95,6314
1914,0034	95,5503
1914,9677	95,4809
1915,9319	95,4279
1916,8961	95,3896
1917,8604	95,3587
1918,8246	95,3275
1919,7888	95,2949
1920,7531	95,2678
1921,7173	95,2558
1922,6815	95,2627
1923,6458	95,2809
1924,6100	95,2939
1925,5742	95,2853
1926,5385	95,2475
1927,5027	95,182
1928,4669	95,0962
1929,4312	94,9996
1930,3954	94,9022
1931,3596	94,8149
1932,3239	94,7471
1933,2881	94,704
1934,2523	94,6833
1935,2166	94,6761
1936,1808	94,6714
1937,1450	94,6637
1938,1093	94,6564
1939,0735	94,6581
1940,0377	94,6736
1941,0020	94,6958
1941,9662	94,7051
1942,9304	94,6792
1943,8947	94,609
1944,8589	94,5034
1945,8231	94,3786
1946,7874	94,2477
1947,7516	94,1196
1948,7158	94,0055
1949,6801	93,9224
1950,6443	93,8879
1951,6085	93,9087
1952,5728	93,9713
1953,5370	94,0437
1954,5012	94,0885
1955,4655	94,079
1956,4297	94,008
1957,3939	93,8859
1958,3582	93,7326
1959,3224	93,5728
1960,2866	93,4365
1961,2509	93,3566
1962,2151	93,3594
1963,1793	93,4489
1964,1436	93,5953
1965,1078	93,7344
1966,0720	93,7847
1967,0363	93,6838
1968,0005	93,4286
1968,9647	93,0842
1969,9290	92,7511
1970,8932	92,5171
1971,8574	92,4264
1972,8217	92,468
1973,7859	92,5783
1974,7501	92,6595
1975,7144	92,6184
1976,6786	92,4191
1977,6428	92,1132
1978,6071	91,8184
1979,5713	91,6529
1980,5355	91,6751
1981,4998	91,8642
1982,4640	92,1403
1983,4282	92,4009
1984,3925	92,5585
1985,3567	92,5671
1986,3209	92,431
1987,2852	92,1936
1988,2494	91,9155
1989,2136	91,6559
1990,1779	91,4623
1991,1421	91,3629
1992,1063	91,3592
1993,0706	91,4229
1994,0348	91,5078
1994,9990	91,5706
1995,9633	91,588
1996,9275	91,561
1997,8917	91,5081
1998,8560	91,4511
1999,8202	91,4003
2000,7844	91,3473
2001,7487	91,2722
2002,7129	91,1601
2003,6771	91,0158
2004,6414	90,8658
2005,6056	90,7469
2006,5698	90,6847
2007,5341	90,6783
2008,4983	90,6995
2009,4625	90,7091
2010,4268	90,6751
2011,3910	90,5826
2012,3552	90,4345
2013,3195	90,2474
2014,2837	90,0501
2015,2479	89,8801
2016,2122	89,7741
2017,1764	89,7491
2018,1406	89,7872
2019,1049	89,8393
2020,0691	89,8517
2021,0333	89,7973
2021,9976	89,6922
2022,9618	89,5884
2023,9260	89,5468
2024,8903	89,6007
2025,8545	89,7302
2026,8187	89,8651
2027,7830	89,9193
2028,7472	89,8385
2029,7114	89,6332
2030,6757	89,377
2031,6399	89,1715
2032,6041	89,0934
2033,5684	89,1545
2034,5326	89,2962
2035,4968	89,425
2036,4611	89,4649
2037,4253	89,3932
2038,3895	89,2419
2039,3538	89,0728
2040,3180	88,9457
2041,2822	88,8932
2042,2465	88,9096
2043,2107	88,9559
2044,1749	88,9775
2045,1392	88,9292
2046,1034	88,7972
2047,0676	88,6117
2048,0320	88,4378
2048,9961	88,3414
2049,9604	88,3526
2050,9246	88,4502
2051,8889	88,5768
2052,8530	88,6697
2053,8174	88,6893
2054,7815	88,6319
2055,7458	88,5243
2056,7100	88,4034
2057,6743	88,2964
2058,6384	88,2125
2059,6028	88,1505
2060,5669	88,1096
2061,5313	88,0926
2062,4954	88,0995
2063,4597	88,1182
2064,4238	88,1255
2065,3882	88,0999
2066,3523	88,0378
2067,3167	87,9581
2068,2808	87,8899
2069,2451	87,8521
2070,2092	87,8412
2071,1736	87,8331
2072,1377	87,7982
2073,1021	87,7191
2074,0662	87,5982
2075,0305	87,4546
2075,9946	87,314
2076,9590	87,2001
2077,9231	87,1303
2078,8875	87,1137
2079,8516	87,1478
2080,8159	87,2168
2081,7800	87,294
2082,7444	87,3508
2083,7085	87,368
2084,6729	87,3414
2085,6370	87,2795
2086,6013	87,1954
2087,5654	87,1002
2088,5298	87,0041
2089,4939	86,9201
2090,4583	86,8655
2091,4224	86,8555
2092,3867	86,8923
2093,3508	86,9585
2094,3152	87,0225
2095,2793	87,0532
2096,2437	87,0369
2097,2078	86,9818
2098,1721	86,909
2099,1362	86,8351
2100,1006	86,764
2101,0647	86,69
2102,0291	86,6088
2102,9932	86,5261
2103,9575	86,4555
2104,9216	86,4096
2105,8860	86,391
2106,8501	86,3913
2107,8145	86,3962
2108,7786	86,3943
2109,7429	86,3807
2110,7070	86,3573
2111,6714	86,3285
2112,6355	86,2987
2113,5999	86,2718
2114,5640	86,2516
2115,5283	86,2404
2116,4924	86,2375
2117,4568	86,2386
2118,4209	86,2375
2119,3853	86,2309
2120,3494	86,2209
2121,3137	86,2147
2122,2778	86,219
2123,2422	86,2348
2124,2063	86,2549
2125,1707	86,2685
2126,1348	86,2701
2127,0991	86,2658
2128,0632	86,2715
2129,0276	86,3031
2129,9917	86,363
2130,9561	86,4317
2131,9202	86,4727
2132,8845	86,4491
2133,8486	86,345
2134,8130	86,1791
2135,7771	85,9989
2136,7415	85,8565
2137,7056	85,7819
2138,6699	85,7701
2139,6340	85,7903
2140,5984	85,8076
2141,5625	85,8024
2142,5269	85,7763
2143,4910	85,7432
2144,4553	85,714
2145,4194	85,6868
2146,3838	85,6495
2147,3479	85,5924
2148,3123	85,5212
2149,2764	85,4601
2150,2407	85,441
2151,2048	85,4833
2152,1692	85,5773
2153,1333	85,6787
2154,0977	85,7179
2155,0618	85,6234
2156,0261	85,3554
2156,9902	84,9409
2157,9546	84,49
2158,9187	84,1606
2159,8831	84,0709
2160,8472	84,2257
2161,8115	84,5234
2162,7756	84,8269
2163,7400	85,0328
2164,7041	85,1028
2165,6685	85,0601
2166,6326	84,9617
2167,5969	84,8643
2168,5610	84,7993
2169,5254	84,7686
2170,4895	84,757
2171,4539	84,7486
2172,4180	84,7372
2173,3823	84,7262
2174,3464	84,7244
2175,3108	84,7421
2176,2749	84,7919
2177,2393	84,8882
2178,2034	85,0412
2179,1677	85,2426
2180,1318	85,4525
2181,0962	85,6017
2182,0603	85,618
2183,0247	85,4678
2183,9888	85,1848
2184,9531	84,8638
2185,9172	84,6167
2186,8816	84,5206
2187,8457	84,5867
2188,8101	84,7663
2189,7742	84,9834
2190,7385	85,1717
2191,7026	85,2952
2192,6670	85,3446
2193,6311	85,3225
2194,5955	85,2338
2195,5596	85,0893
2196,5239	84,9153
2197,4880	84,754
2198,4524	84,6494
2199,4165	84,6257
2200,3809	84,6763
2201,3450	84,7695
2202,3093	84,8691
2203,2734	84,952
2204,2378	85,0122
2205,2019	85,0521
2206,1663	85,0715
2207,1304	85,0664
2208,0947	85,0374
2209,0588	84,9977
2210,0232	84,9698
2210,9873	84,9711
2211,9517	84,9984
2212,9158	85,0259
2213,8801	85,0189
2214,8442	84,9568
2215,8086	84,8482
2216,7727	84,729
2217,7371	84,6431
2218,7012	84,6199
2219,6655	84,6592
2220,6296	84,7341
2221,5940	84,8061
2222,5581	84,843
2223,5225	84,8321
2224,4866	84,7811
2225,4509	84,711
2226,4150	84,647
2227,3794	84,61
2228,3435	84,6126
2229,3079	84,6581
2230,2720	84,739
2231,2363	84,8374
2232,2004	84,9276
2233,1648	84,9852
2234,1289	84,9976
2235,0933	84,9709
2236,0574	84,9257
2237,0217	84,8849
2237,9858	84,8594
2238,9502	84,8429
2239,9143	84,8202
2240,8787	84,7817
2241,8428	84,7342
2242,8071	84,6975
2243,7712	84,6895
2244,7356	84,7112
2245,6997	84,7431
2246,6641	84,7571
2247,6282	84,7338
2248,5925	84,6754
2249,5566	84,6018
2250,5210	84,5377
2251,4851	84,4971
2252,4495	84,4782
2253,4136	84,4689
2254,3779	84,4579
2255,3420	84,4421
2256,3064	84,4264
2257,2705	84,4169
2258,2349	84,4147
2259,1990	84,4141
2260,1633	84,4066
2261,1274	84,3859
2262,0918	84,3522
2263,0559	84,3116
2264,0203	84,2738
2264,9844	84,248
2265,9487	84,2382
2266,9128	84,2413
2267,8772	84,2476
2268,8413	84,2454
2269,8057	84,227
2270,7698	84,1937
2271,7341	84,1563
2272,6982	84,1289
2273,6626	84,1206
2274,6267	84,1291
2275,5911	84,1412
2276,5552	84,1391
2277,5195	84,11
2278,4836	84,0514
2279,4480	83,9709
2280,4121	83,8824
2281,3765	83,8001
2282,3406	83,7355
2283,3049	83,696
2284,2690	83,6849
2285,2334	83,6997
2286,1975	83,7322
2287,1619	83,7702
2288,1260	83,8004
2289,0903	83,8134
2290,0544	83,8056
2291,0188	83,7787
2291,9829	83,7374
2292,9473	83,6874
2293,9114	83,635
2294,8757	83,5881
2295,8398	83,5556
2296,8042	83,5448
2297,7683	83,5578
2298,7327	83,5881
2299,6968	83,6216
2300,6611	83,6413
2301,6252	83,6352
2302,5896	83,601
2303,5537	83,5475
2304,5181	83,4905
2305,4822	83,4461
2306,4465	83,4246
2307,4106	83,427
2308,3750	83,4461
2309,3391	83,47
2310,3035	83,4872
2311,2676	83,4906
2312,2319	83,4788
2313,1960	83,4564
2314,1604	83,4317
2315,1245	83,4133
2316,0889	83,4064
2317,0530	83,4091
2318,0173	83,4108
2318,9814	83,3942
2319,9458	83,344
2320,9099	83,2577
2321,8743	83,1524
2322,8384	83,0581
2323,8027	83,002
2324,7668	82,9952
2325,7312	83,0299
2326,6953	83,0877
2327,6597	83,1493
2328,6238	83,203
2329,5881	83,2465
2330,5522	83,282
2331,5166	83,308
2332,4807	83,316
2333,4451	83,2944
2334,4092	83,2377
2335,3735	83,1514
2336,3376	83,0506
2337,3020	82,9526
2338,2661	82,8696
2339,2305	82,8056
2340,1946	82,7605
2341,1589	82,7379
2342,1230	82,7473
2343,0874	82,7958
2344,0515	82,8702
2345,0159	82,9351
2345,9800	82,9556
2346,9443	82,9233
2347,9084	82,8544
2348,8728	82,7726
2349,8369	82,6954
2350,8013	82,6298
2351,7654	82,5754
2352,7297	82,5306
2353,6938	82,4967
2354,6582	82,4776
2355,6223	82,4738
2356,5867	82,4795
2357,5508	82,4833
2358,5151	82,4689
2359,4792	82,4193
2360,4436	82,3269
2361,4077	82,2027
2362,3721	82,0757
2363,3362	81,9801
2364,3005	81,938
2365,2646	81,9492
2366,2290	81,9938
2367,1931	82,0454
2368,1575	82,0842
2369,1216	82,1025
2370,0859	82,1025
2371,0500	82,0901
2372,0144	82,0696
2372,9785	82,0414
2373,9429	82,0031
2374,9070	81,9518
2375,8713	81,8869
2376,8354	81,8115
2377,7998	81,7309
2378,7639	81,6505
2379,7283	81,574
2380,6924	81,5029
2381,6567	81,4372
2382,6208	81,3779
2383,5852	81,3264
2384,5493	81,2851
2385,5137	81,2547
2386,4778	81,2332
2387,4421	81,2154
2388,4063	81,1946
2389,3706	81,1651
2390,3347	81,1246
2391,2991	81,0762
2392,2632	81,0265
2393,2275	80,9832
2394,1917	80,9506
2395,1560	80,9279
2396,1201	80,9082
2397,0845	80,8826
2398,0486	80,8441
2399,0129	80,7918
2399,9771	80,7314
2400,9414	80,672
2401,9055	80,6213
2402,8699	80,5814
2403,8340	80,5474
2404,7983	80,5109
2405,7625	80,4643
2406,7268	80,4057
2407,6909	80,3397
2408,6553	80,275
2409,6194	80,22
2410,5837	80,1785
2411,5479	80,1477
2412,5122	80,1204
2413,4763	80,0887
2414,4407	80,0482
2415,4048	79,9993
2416,3691	79,9469
2417,3333	79,8968
2418,2976	79,8526
2419,2617	79,8148
2420,2261	79,7809
2421,1902	79,7473
2422,1545	79,7114
2423,1187	79,6716
2424,0830	79,627
2425,0471	79,5779
2426,0115	79,5247
2426,9756	79,4692
2427,9399	79,4138
2428,9041	79,3613
2429,8684	79,3139
2430,8325	79,2718
2431,7969	79,2332
2432,7610	79,1945
2433,7253	79,1516
2434,6895	79,1013
2435,6538	79,0424
2436,6179	78,9765
2437,5823	78,9076
2438,5464	78,8401
2439,5107	78,7777
2440,4749	78,7215
2441,4392	78,6704
2442,4033	78,622
2443,3677	78,575
2444,3318	78,5296
2445,2961	78,4875
2446,2603	78,4493
2447,2246	78,4127
2448,1887	78,3728
2449,1531	78,3244
2450,1172	78,2657
2451,0815	78,1998
2452,0457	78,1337
2453,0100	78,0741
2453,9741	78,0233
2454,9385	77,9789
2455,9026	77,9364
2456,8669	77,8943
2457,8311	77,8548
2458,7954	77,8222
2459,7595	77,7971
2460,7239	77,7737
2461,6880	77,7413
2462,6523	77,6908
2463,6165	77,6208
2464,5808	77,5396
2465,5449	77,4611
2466,5093	77,3973
2467,4734	77,3521
2468,4377	77,3205
2469,4019	77,2926
2470,3662	77,259
2471,3303	77,215
2472,2947	77,1618
2473,2588	77,1041
2474,2231	77,0472
2475,1873	76,9944
2476,1516	76,9455
2477,1157	76,8975
2478,0801	76,8467
2479,0442	76,791
2480,0085	76,7322
2480,9727	76,6758
2481,9370	76,6282
2482,9011	76,5933
2483,8655	76,5703
2484,8296	76,5536
2485,7939	76,5353
2486,7581	76,5079
2487,7224	76,4672
2488,6865	76,4119
2489,6509	76,3442
2490,6150	76,2692
2491,5793	76,1952
2492,5435	76,1322
2493,5078	76,0891
2494,4719	76,07
2495,4363	76,0702
2496,4004	76,077
2497,3647	76,0743
2498,3289	76,0491
2499,2932	75,9979
2500,2573	75,9285
2501,2217	75,8556
2502,1858	75,794
2503,1501	75,7517
2504,1143	75,727
2505,0786	75,7106
2506,0427	75,6914
2507,0071	75,6617
2507,9712	75,6192
2508,9355	75,5657
2509,8997	75,505
2510,8640	75,44
2511,8281	75,374
2512,7925	75,312
2513,7566	75,2614
2514,7209	75,23
2515,6851	75,2218
2516,6494	75,2331
2517,6135	75,2515
2518,5779	75,261
2519,5420	75,2488
2520,5063	75,2112
2521,4705	75,1552
2522,4348	75,0935
2523,3989	75,0373
2524,3633	74,9911
2525,3274	74,9516
2526,2917	74,9126
2527,2559	74,8703
2528,2202	74,8262
2529,1843	74,7864
2530,1487	74,7569
2531,1128	74,739
2532,0771	74,7278
2533,0413	74,7139
2534,0056	74,6879
2534,9697	74,6442
2535,9341	74,5835
2536,8982	74,5112
2537,8625	74,4354
2538,8267	74,3631
2539,7910	74,2982
2540,7551	74,2423
2541,7195	74,1948
2542,6836	74,1556
2543,6479	74,1247
2544,6121	74,1018
2545,5764	74,0846
2546,5405	74,0692
2547,5049	74,0503
2548,4690	74,0241
2549,4333	73,9897
2550,3975	73,9493
2551,3618	73,9065
2552,3259	73,864
2553,2903	73,8225
2554,2544	73,7821
2555,2188	73,7434
2556,1829	73,7087
2557,1472	73,6812
2558,1113	73,6622
2559,0757	73,6492
2560,0398	73,6358
2561,0042	73,614
2561,9683	73,5785
2562,9326	73,5294
2563,8967	73,4728
2564,8611	73,4173
2565,8252	73,3696
2566,7896	73,3308
2567,7537	73,2964
2568,7180	73,2598
2569,6821	73,217
2570,6465	73,1697
2571,6106	73,1245
2572,5750	73,0889
2573,5391	73,066
2574,5034	73,0527
2575,4675	73,0405
2576,4319	73,0205
2577,3960	72,9874
2578,3604	72,9425
2579,3245	72,8919
2580,2888	72,8431
2581,2529	72,8021
2582,2173	72,7705
2583,1814	72,7456
2584,1458	72,7214
2585,1099	72,6908
2586,0742	72,6477
2587,0383	72,59
2588,0027	72,522
2588,9668	72,454
2589,9312	72,3989
2590,8953	72,3667
2591,8596	72,358
2592,8237	72,3629
2593,7881	72,3648
2594,7522	72,3489
2595,7166	72,3099
2596,6807	72,2544
2597,6450	72,1963
2598,6091	72,1481
2599,5735	72,1137
2600,5376	72,0871
2601,5020	72,0578
2602,4661	72,0171
2603,4304	71,9631
2604,3945	71,9004
2605,3589	71,8362
2606,3230	71,7777
2607,2874	71,7295
2608,2515	71,6945
2609,2158	71,6737
2610,1799	71,6651
2611,1443	71,663
2612,1084	71,6589
2613,0728	71,6447
2614,0369	71,6157
2615,0012	71,5734
2615,9653	71,523
2616,9297	71,471
2617,8938	71,4213
2618,8582	71,3754
2619,8223	71,3323
2620,7866	71,2911
2621,7507	71,2505
2622,7151	71,2091
2623,6792	71,1651
2624,6436	71,1178
2625,6077	71,069
2626,5720	71,0227
2627,5361	70,9834
2628,5005	70,9525
2629,4646	70,9273
2630,4290	70,9016
2631,3931	70,8698
2632,3574	70,8297
2633,3215	70,784
2634,2859	70,7382
2635,2500	70,6964
2636,2144	70,6599
2637,1785	70,6264
2638,1428	70,5931
2639,1069	70,558
2640,0713	70,5216
2641,0354	70,4852
2641,9998	70,4504
2642,9639	70,4178
2643,9282	70,3875
2644,8923	70,3593
2645,8567	70,3332
2646,8208	70,3091
2647,7852	70,286
2648,7493	70,2627
2649,7136	70,2379
2650,6777	70,2111
2651,6421	70,1826
2652,6062	70,1532
2653,5706	70,1237
2654,5347	70,0949
2655,4990	70,0674
2656,4631	70,0419
2657,4275	70,0192
2658,3916	69,9994
2659,3560	69,9819
2660,3201	69,9655
2661,2844	69,9488
2662,2485	69,9311
2663,2129	69,9126
2664,1770	69,8934
2665,1414	69,8735
2666,1055	69,8523
2667,0698	69,8287
2668,0339	69,8025
2668,9983	69,7741
2669,9624	69,7453
2670,9268	69,7179
2671,8909	69,6931
2672,8552	69,6711
2673,8193	69,6509
2674,7837	69,6308
2675,7478	69,6084
2676,7122	69,5804
2677,6763	69,5439
2678,6406	69,4977
2679,6047	69,4437
2680,5691	69,3874
2681,5332	69,3361
2682,4976	69,2957
2683,4617	69,2677
2684,4260	69,2484
2685,3901	69,2313
2686,3545	69,2105
2687,3186	69,1837
2688,2830	69,1523
2689,2471	69,1191
2690,2114	69,0854
2691,1755	69,0503
2692,1399	69,0116
2693,1040	68,9684
2694,0684	68,9226
2695,0325	68,8777
2695,9968	68,8374
2696,9609	68,8025
2697,9253	68,7712
2698,8894	68,7397
2699,8538	68,7043
2700,8179	68,6637
2701,7822	68,6192
2702,7463	68,5736
2703,7107	68,5301
2704,6748	68,49
2705,6392	68,452
2706,6033	68,4132
2707,5676	68,3703
2708,5317	68,3224
2709,4961	68,2707
2710,4602	68,2181
2711,4246	68,1673
2712,3887	68,1187
2713,3530	68,0713
2714,3171	68,024
2715,2815	67,9771
2716,2456	67,933
2717,2100	67,8952
2718,1741	67,8657
2719,1384	67,844
2720,1025	67,8269
2721,0669	67,809
2722,0310	67,7847
2722,9954	67,7494
2723,9595	67,7017
2724,9238	67,644
2725,8879	67,5828
2726,8523	67,5259
2727,8164	67,4796
2728,7808	67,4451
2729,7449	67,4179
2730,7092	67,3895
2731,6733	67,3518
2732,6377	67,3013
2733,6018	67,2401
2734,5662	67,1746
2735,5303	67,1121
2736,4946	67,0576
2737,4587	67,0126
2738,4231	66,9755
2739,3872	66,943
2740,3516	66,9117
2741,3157	66,8789
2742,2800	66,8432
2743,2441	66,8044
2744,2085	66,7629
2745,1726	66,7195
2746,1370	66,6747
2747,1011	66,6282
2748,0654	66,5798
2749,0295	66,5291
2749,9939	66,4764
2750,9580	66,4224
2751,9224	66,3681
2752,8865	66,3141
2753,8508	66,2611
2754,8149	66,2098
2755,7793	66,1607
2756,7434	66,1137
2757,7078	66,0677
2758,6719	66,0208
2759,6362	65,9707
2760,6003	65,9167
2761,5647	65,8596
2762,5288	65,8027
2763,4932	65,7495
2764,4573	65,703
2765,4216	65,6634
2766,3857	65,629
2767,3501	65,5963
2768,3142	65,5621
2769,2786	65,5247
2770,2427	65,4836
2771,2070	65,4395
2772,1711	65,393
2773,1355	65,3441
2774,0996	65,292
2775,0640	65,2364
2776,0281	65,1776
2776,9924	65,1172
2777,9565	65,058
2778,9209	65,0026
2779,8850	64,953
2780,8494	64,9093
2781,8135	64,8702
2782,7778	64,8335
2783,7419	64,797
2784,7063	64,7587
2785,6704	64,717
2786,6348	64,6707
2787,5989	64,6196
2788,5632	64,5654
2789,5273	64,5113
2790,4917	64,4617
2791,4558	64,4194
2792,4202	64,3841
2793,3843	64,3518
2794,3486	64,316
2795,3127	64,2711
2796,2771	64,2153
2797,2412	64,1512
2798,2056	64,0848
2799,1697	64,0221
2800,1340	63,9669
2801,0981	63,92
2802,0625	63,8801
2803,0266	63,8442
2803,9910	63,8097
2804,9551	63,7736
2805,9194	63,7336
2806,8835	63,6879
2807,8479	63,6362
2808,8120	63,5796
2809,7764	63,5208
2810,7405	63,4626
2811,7048	63,4072
2812,6689	63,3557
2813,6333	63,3071
2814,5974	63,26
2815,5618	63,2126
2816,5259	63,1632
2817,4902	63,111
2818,4543	63,0552
2819,4187	62,9953
2820,3828	62,9312
2821,3472	62,8634
2822,3113	62,7933
2823,2756	62,7236
2824,2397	62,6571
2825,2041	62,596
2826,1682	62,541
2827,1326	62,4905
2828,0967	62,4414
2829,0610	62,39
2830,0251	62,3343
2830,9895	62,2738
2831,9536	62,2105
2832,9180	62,1469
2833,8821	62,0854
2834,8464	62,0266
2835,8105	61,9692
2836,7749	61,9104
2837,7390	61,8465
2838,7034	61,7748
2839,6675	61,6943
2840,6318	61,6067
2841,5959	61,5159
2842,5603	61,4265
2843,5244	61,3417
2844,4888	61,2611
2845,4529	61,1813
2846,4172	61,0975
2847,3813	61,007
2848,3457	60,9111
2849,3098	60,8153
2850,2742	60,7259
2851,2383	60,6459
2852,2026	60,5739
2853,1667	60,506
2854,1311	60,4383
2855,0952	60,3698
2856,0596	60,3018
2857,0237	60,2365
2857,9880	60,1741
2858,9521	60,1132
2859,9165	60,0509
2860,8806	59,9851
2861,8450	59,9157
2862,8091	59,8442
2863,7734	59,7734
2864,7375	59,7063
2865,7019	59,6444
2866,6660	59,5881
2867,6304	59,5357
2868,5945	59,4841
2869,5588	59,4294
2870,5229	59,3683
2871,4873	59,2993
2872,4514	59,2231
2873,4158	59,1427
2874,3799	59,0623
2875,3442	58,9856
2876,3083	58,9153
2877,2727	58,8517
2878,2368	58,7927
2879,2012	58,7347
2880,1653	58,6743
2881,1296	58,6096
2882,0938	58,5417
2883,0581	58,4736
2884,0222	58,4085
2884,9866	58,3479
2885,9507	58,2911
2886,9150	58,2359
2887,8792	58,1808
2888,8435	58,1264
2889,8076	58,0753
2890,7720	58,0305
2891,7361	57,9931
2892,7004	57,9614
2893,6646	57,9314
2894,6289	57,8991
2895,5930	57,8627
2896,5574	57,8237
2897,5215	57,7863
2898,4858	57,7545
2899,4500	57,7308
2900,4143	57,7147
2901,3784	57,7039
2902,3428	57,6961
2903,3069	57,6909
2904,2712	57,6896
2905,2354	57,6949
2906,1997	57,7088
2907,1638	57,7309
2908,1282	57,758
2909,0923	57,7835
2910,0566	57,7995
2911,0208	57,7989
2911,9851	57,7779
2912,9492	57,7382
2913,9136	57,6864
2914,8777	57,6317
2915,8420	57,5825
2916,8062	57,5425
2917,7705	57,5104
2918,7346	57,482
2919,6990	57,4538
2920,6631	57,4261
2921,6274	57,4026
2922,5916	57,3878
2923,5559	57,3832
2924,5200	57,3857
2925,4844	57,3886
2926,4485	57,3849
2927,4128	57,371
2928,3770	57,3491
2929,3413	57,3257
2930,3054	57,3081
2931,2698	57,3003
2932,2339	57,302
2933,1982	57,3085
2934,1624	57,3145
2935,1267	57,3166
2936,0908	57,3147
2937,0552	57,3117
2938,0193	57,312
2938,9836	57,3194
2939,9478	57,3356
2940,9121	57,3594
2941,8762	57,3864
2942,8406	57,4106
2943,8047	57,4269
2944,7690	57,4332
2945,7332	57,4317
2946,6975	57,4282
2947,6616	57,4287
2948,6260	57,4359
2949,5901	57,4479
2950,5544	57,4586
2951,5186	57,4613
2952,4829	57,4516
2953,4470	57,43
2954,4114	57,4016
2955,3755	57,3738
2956,3398	57,3534
2957,3040	57,3441
2958,2683	57,3451
2959,2324	57,3521
2960,1968	57,3591
2961,1609	57,3607
2962,1252	57,3543
2963,0894	57,3403
2964,0537	57,3209
2965,0178	57,2997
2965,9822	57,2799
2966,9463	57,2647
2967,9106	57,2563
2968,8748	57,2563
2969,8391	57,265
2970,8032	57,2812
2971,7676	57,3039
2972,7317	57,3322
2973,6960	57,3661
2974,6602	57,4056
2975,6245	57,4487
2976,5886	57,4913
2977,5530	57,528
2978,5171	57,5542
2979,4814	57,5684
2980,4456	57,5726
2981,4099	57,5713
2982,3740	57,5696
2983,3384	57,5718
2984,3025	57,5806
2985,2668	57,597
2986,2310	57,62
2987,1953	57,6465
2988,1594	57,6719
2989,1238	57,6914
2990,0879	57,7025
2991,0522	57,706
2992,0164	57,7053
2992,9807	57,7039
2993,9448	57,7031
2994,9092	57,7011
2995,8733	57,695
2996,8376	57,6829
2997,8018	57,6653
2998,7661	57,6444
2999,7302	57,622
3000,6946	57,5986
3001,6587	57,5734
3002,6230	57,5466
3003,5872	57,5201
3004,5515	57,4972
3005,5156	57,4809
3006,4800	57,4714
3007,4441	57,4661
3008,4084	57,4604
3009,3726	57,4495
3010,3369	57,4304
3011,3010	57,4021
3012,2654	57,3655
3013,2295	57,3234
3014,1938	57,2791
3015,1580	57,2367
3016,1223	57,1991
3017,0864	57,1669
3018,0508	57,1377
3019,0149	57,1068
3019,9792	57,0695
3020,9434	57,0236
3021,9077	56,971
3022,8718	56,9167
3023,8362	56,8667
3024,8003	56,8242
3025,7646	56,7888
3026,7288	56,7564
3027,6931	56,7219
3028,6572	56,6815
3029,6216	56,6337
3030,5857	56,5799
3031,5500	56,523
3032,5142	56,4668
3033,4785	56,4159
3034,4426	56,3743
3035,4070	56,3444
3036,3711	56,3256
3037,3354	56,3138
3038,2996	56,3017
3039,2639	56,2819
3040,2280	56,2496
3041,1924	56,205
3042,1565	56,1529
3043,1208	56,1001
3044,0850	56,052
3045,0493	56,0102
3046,0134	55,973
3046,9778	55,9371
3047,9419	55,9003
3048,9063	55,8628
3049,8704	55,8257
3050,8347	55,7892
3051,7988	55,7505
3052,7632	55,7055
3053,7273	55,6517
3054,6917	55,5912
3055,6558	55,5317
3056,6201	55,4822
3057,5842	55,4477
3058,5486	55,4257
3059,5127	55,4076
3060,4771	55,3847
3061,4412	55,3532
3062,4055	55,3161
3063,3696	55,2803
3064,3340	55,2506
3065,2981	55,2261
3066,2625	55,2002
3067,2266	55,1661
3068,1909	55,1221
3069,1550	55,0734
3070,1194	55,0303
3071,0835	55,0029
3072,0479	54,9965
3073,0120	55,0087
3073,9763	55,0304
3074,9404	55,0498
3075,9048	55,0571
3076,8689	55,0486
3077,8333	55,0275
3078,7974	55,0011
3079,7617	54,9762
3080,7258	54,9559
3081,6902	54,94
3082,6543	54,9271
3083,6187	54,9184
3084,5828	54,9165
3085,5471	54,9231
3086,5112	54,9353
3087,4756	54,9459
3088,4397	54,9473
3089,4041	54,9366
3090,3682	54,9182
3091,3325	54,9012
3092,2966	54,8938
3093,2610	54,8989
3094,2251	54,9121
3095,1895	54,9253
3096,1536	54,9304
3097,1179	54,9231
3098,0820	54,9038
3099,0464	54,8768
3100,0105	54,8491
3100,9749	54,8284
3101,9390	54,8205
3102,9033	54,8265
3103,8674	54,8412
3104,8318	54,8555
3105,7959	54,8601
3106,7603	54,851
3107,7244	54,8313
3108,6887	54,8094
3109,6528	54,7945
3110,6172	54,7922
3111,5813	54,8024
3112,5457	54,8203
3113,5098	54,8397
3114,4741	54,8555
3115,4382	54,8645
3116,4026	54,8654
3117,3667	54,8585
3118,3311	54,8444
3119,2952	54,8244
3120,2595	54,8008
3121,2236	54,7764
3122,1880	54,7542
3123,1521	54,7363
3124,1165	54,7226
3125,0806	54,7105
3126,0449	54,6962
3127,0090	54,6769
3127,9734	54,6523
3128,9375	54,6254
3129,9019	54,6006
3130,8660	54,5815
3131,8303	54,5691
3132,7944	54,5616
3133,7588	54,5557
3134,7229	54,5484
3135,6873	54,5378
3136,6514	54,5229
3137,6157	54,5025
3138,5798	54,4749
3139,5442	54,4389
3140,5083	54,3943
3141,4727	54,3431
3142,4368	54,2898
3143,4011	54,24
3144,3652	54,1996
3145,3296	54,1728
3146,2937	54,1608
3147,2581	54,161
3148,2222	54,1674
3149,1865	54,1717
3150,1506	54,166
3151,1150	54,1447
3152,0791	54,1066
3153,0435	54,0547
3154,0076	53,9947
3154,9719	53,9334
3155,9360	53,8761
3156,9004	53,8254
3157,8645	53,7815
3158,8289	53,7423
3159,7930	53,7047
3160,7573	53,666
3161,7214	53,6242
3162,6858	53,5786
3163,6499	53,5299
3164,6143	53,4799
3165,5784	53,431
3166,5427	53,386
3167,5068	53,3478
3168,4712	53,319
3169,4353	53,3008
3170,3997	53,2921
3171,3638	53,288
3172,3281	53,2803
3173,2922	53,2605
3174,2566	53,2232
3175,2207	53,1699
3176,1851	53,109
3177,1492	53,0523
3178,1135	53,0084
3179,0776	52,9783
3180,0420	52,9554
3181,0061	52,9302
3181,9705	52,8969
3182,9346	52,8567
3183,8989	52,8165
3184,8630	52,7842
3185,8274	52,7639
3186,7915	52,753
3187,7559	52,7449
3188,7200	52,7321
3189,6843	52,7101
3190,6484	52,6785
3191,6128	52,6408
3192,5769	52,6026
3193,5413	52,5697
3194,5054	52,5462
3195,4697	52,5339
3196,4338	52,5309
3197,3982	52,5328
3198,3623	52,5336
3199,3267	52,5286
3200,2908	52,5158
3201,2551	52,4967
3202,2192	52,4752
3203,1836	52,4552
3204,1477	52,439
3205,1121	52,4261
3206,0762	52,4146
3207,0405	52,403
3208,0046	52,3916
3208,9690	52,3829
3209,9331	52,3794
3210,8975	52,3813
3211,8616	52,3856
3212,8259	52,3874
3213,7900	52,383
3214,7544	52,3719
3215,7185	52,357
3216,6829	52,3422
3217,6470	52,3299
3218,6113	52,3204
3219,5754	52,3125
3220,5398	52,3054
3221,5039	52,2992
3222,4683	52,2946
3223,4324	52,2918
3224,3967	52,291
3225,3608	52,2935
3226,3252	52,3025
3227,2893	52,321
3228,2537	52,3493
3229,2178	52,3814
3230,1821	52,4072
3231,1462	52,4166
3232,1106	52,4061
3233,0747	52,3815
3234,0391	52,3555
3235,0032	52,3419
3235,9675	52,3483
3236,9316	52,3738
3237,8960	52,4106
3238,8601	52,4492
3239,8245	52,4833
3240,7886	52,5117
3241,7529	52,5369
3242,7170	52,5619
3243,6814	52,5876
3244,6455	52,6119
3245,6099	52,6319
3246,5740	52,6458
3247,5383	52,655
3248,5024	52,664
3249,4668	52,6787
3250,4309	52,7037
3251,3953	52,7408
3252,3594	52,7878
3253,3237	52,8392
3254,2878	52,8882
3255,2522	52,929
3256,2163	52,9597
3257,1807	52,9826
3258,1448	53,0035
3259,1091	53,0293
3260,0732	53,0647
3261,0376	53,1107
3262,0017	53,1645
3262,9661	53,222
3263,9302	53,2804
3264,8945	53,3393
3265,8586	53,3998
3266,8230	53,4623
3267,7871	53,525
3268,7515	53,584
3269,7156	53,6364
3270,6799	53,6819
3271,6440	53,7237
3272,6084	53,7667
3273,5725	53,8144
3274,5369	53,8666
3275,5010	53,9199
3276,4653	53,9697
3277,4294	54,0131
3278,3938	54,0501
3279,3579	54,0833
3280,3223	54,1162
3281,2864	54,1521
3282,2507	54,1927
3283,2148	54,239
3284,1792	54,2914
3285,1433	54,3509
3286,1077	54,4184
3287,0718	54,4947
3288,0361	54,5786
3289,0002	54,6669
3289,9646	54,7534
3290,9287	54,8305
3291,8931	54,8916
3292,8572	54,9334
3293,8215	54,958
3294,7856	54,973
3295,7500	54,9886
3296,7141	55,0144
3297,6785	55,0554
3298,6426	55,1108
3299,6069	55,1755
3300,5710	55,2444
3301,5354	55,3153
3302,4995	55,3895
3303,4639	55,469
3304,4280	55,5529
3305,3923	55,6356
3306,3564	55,7086
3307,3208	55,7646
3308,2849	55,8017
3309,2493	55,8241
3310,2134	55,8394
3311,1777	55,855
3312,1418	55,8757
3313,1062	55,9037
3314,0703	55,9397
3315,0347	55,9839
3315,9988	56,0348
3316,9631	56,089
3317,9272	56,1416
3318,8916	56,1884
3319,8557	56,2284
3320,8201	56,2644
3321,7842	56,3014
3322,7485	56,3429
3323,7126	56,3887
3324,6770	56,4347
3325,6411	56,4752
3326,6055	56,5067
3327,5696	56,5305
3328,5339	56,5525
3329,4980	56,5813
3330,4624	56,624
3331,4265	56,6824
3332,3909	56,7517
3333,3550	56,8224
3334,3193	56,8843
3335,2834	56,9318
3336,2478	56,9666
3337,2119	56,9961
3338,1763	57,0283
3339,1404	57,0672
3340,1047	57,1106
3341,0688	57,153
3342,0332	57,1894
3342,9973	57,2183
3343,9617	57,242
3344,9258	57,2646
3345,8901	57,2899
3346,8542	57,3207
3347,8186	57,3586
3348,7827	57,4051
3349,7471	57,4598
3350,7112	57,5202
3351,6755	57,5813
3352,6396	57,6372
3353,6040	57,6841
3354,5681	57,7221
3355,5325	57,7553
3356,4966	57,7904
3357,4609	57,8336
3358,4250	57,8879
3359,3894	57,9519
3360,3535	58,0202
3361,3179	58,0852
3362,2820	58,1398
3363,2463	58,1804
3364,2104	58,2089
3365,1748	58,2321
3366,1389	58,2586
3367,1033	58,2953
3368,0674	58,3447
3369,0317	58,4054
3369,9958	58,4744
3370,9602	58,549
3371,9243	58,6271
3372,8887	58,7067
3373,8528	58,7855
3374,8171	58,8609
3375,7813	58,9316
3376,7456	58,9983
3377,7097	59,0626
3378,6741	59,1249
3379,6382	59,1841
3380,6025	59,2385
3381,5667	59,2888
3382,5310	59,339
3383,4951	59,395
3384,4595	59,4609
3385,4236	59,5366
3386,3879	59,6185
3387,3521	59,7028
3388,3164	59,7886
3389,2805	59,8783
3390,2449	59,9736
3391,2090	60,0726
3392,1733	60,1685
3393,1375	60,2539
3394,1018	60,3251
3395,0659	60,3848
3396,0303	60,4392
3396,9944	60,4943
3397,9587	60,5535
3398,9229	60,6183
3399,8872	60,6904
3400,8513	60,7732
3401,8157	60,8691
3402,7798	60,9768
3403,7441	61,0897
3404,7083	61,1993
3405,6726	61,2991
3406,6367	61,3882
3407,6011	61,4712
3408,5652	61,5542
3409,5295	61,6415
3410,4937	61,7341
3411,4580	61,8309
3412,4221	61,9299
3413,3865	62,0289
3414,3506	62,1264
3415,3149	62,2214
3416,2791	62,3149
3417,2434	62,4088
3418,2075	62,5052
3419,1719	62,6037
3420,1360	62,7004
3421,1003	62,7908
3422,0645	62,8737
3423,0288	62,9536
3423,9929	63,0375
3424,9573	63,1297
3425,9214	63,2275
3426,8857	63,322
3427,8499	63,4044
3428,8142	63,472
3429,7783	63,5323
3430,7427	63,5986
3431,7068	63,6831
3432,6711	63,7892
3433,6353	63,9111
3434,5996	64,038
3435,5637	64,1604
3436,5281	64,2757
3437,4922	64,3873
3438,4565	64,5015
3439,4207	64,6216
3440,3850	64,7459
3441,3491	64,868
3442,3135	64,9813
3443,2776	65,0827
3444,2419	65,1748
3445,2061	65,2639
3446,1704	65,3562
3447,1345	65,4541
3448,0989	65,5555
3449,0630	65,6564
3450,0273	65,7544
3450,9915	65,8503
3451,9558	65,9469
3452,9199	66,0471
3453,8843	66,1525
3454,8484	66,2632
3455,8127	66,3786
3456,7769	66,4974
3457,7412	66,6172
3458,7053	66,7337
3459,6697	66,8412
3460,6338	66,9346
3461,5981	67,0139
3462,5623	67,0854
3463,5266	67,1605
3464,4907	67,2509
3465,4551	67,3633
3466,4192	67,4963
3467,3835	67,6415
3468,3477	67,7878
3469,3120	67,9268
3470,2761	68,0559
3471,2405	68,1779
3472,2046	68,297
3473,1689	68,4156
3474,1331	68,5324
3475,0974	68,6449
3476,0615	68,7521
3477,0259	68,8568
3477,9900	68,9644
3478,9543	69,0802
3479,9185	69,2068
3480,8828	69,343
3481,8469	69,4851
3482,8113	69,6296
3483,7754	69,774
3484,7397	69,9165
3485,7039	70,0548
3486,6682	70,1866
3487,6323	70,3113
3488,5967	70,4321
3489,5608	70,5542
3490,5251	70,6825
3491,4893	70,8185
3492,4536	70,9609
3493,4177	71,108
3494,3821	71,2591
3495,3462	71,414
3496,3105	71,5712
3497,2747	71,7269
3498,2390	71,8776
3499,2031	72,0233
3500,1675	72,1698
3501,1316	72,3259
3502,0959	72,497
3503,0601	72,6786
3504,0244	72,8578
3504,9885	73,0229
3505,9529	73,1713
3506,9170	73,3091
3507,8813	73,4459
3508,8455	73,5891
3509,8098	73,7412
3510,7739	73,9009
3511,7383	74,0661
3512,7024	74,237
3513,6667	74,4141
3514,6309	74,5962
3515,5952	74,7788
3516,5593	74,9559
3517,5237	75,1242
3518,4878	75,2853
3519,4521	75,4452
3520,4163	75,6103
3521,3806	75,7824
3522,3447	75,9575
3523,3091	76,1269
3524,2732	76,2843
3525,2375	76,4314
3526,2017	76,5784
3527,1660	76,7376
3528,1301	76,9146
3529,0945	77,1027
3530,0586	77,2879
3531,0229	77,4585
3531,9871	77,6132
3532,9514	77,7622
3533,9155	77,9212
3534,8799	78,1027
3535,8440	78,3074
3536,8083	78,5223
3537,7725	78,7261
3538,7368	78,9021
3539,7009	79,0442
3540,6653	79,1575
3541,6294	79,2549
3542,5938	79,3559
3543,5579	79,4838
3544,5222	79,6588
3545,4863	79,8833
3546,4507	80,136
3547,4148	80,3852
3548,3792	80,6088
3549,3433	80,8028
3550,3076	80,9771
3551,2717	81,1472
3552,2361	81,3256
3553,2002	81,5133
3554,1646	81,7003
3555,1287	81,8737
3556,0930	82,0281
3557,0571	82,1683
3558,0215	82,308
3558,9856	82,463
3559,9500	82,6423
3560,9141	82,8432
3561,8784	83,0532
3562,8425	83,259
3563,8069	83,4526
3564,7710	83,6344
3565,7354	83,8107
3566,6995	83,9883
3567,6638	84,1666
3568,6279	84,3398
3569,5923	84,5046
3570,5564	84,6625
3571,5208	84,8168
3572,4849	84,9706
3573,4492	85,126
3574,4133	85,2842
3575,3777	85,4467
3576,3418	85,6165
3577,3062	85,7982
3578,2703	85,9949
3579,2346	86,2049
3580,1987	86,4192
3581,1631	86,6247
3582,1272	86,8094
3583,0916	86,9677
3584,0557	87,1019
3585,0200	87,2234
3585,9841	87,3529
3586,9485	87,5097
3587,9126	87,6933
3588,8770	87,8819
3589,8411	88,0555
3590,8054	88,2098
3591,7695	88,3522
3592,7339	88,4952
3593,6980	88,649
3594,6624	88,8153
3595,6265	88,9843
3596,5908	89,1433
3597,5549	89,287
3598,5193	89,4213
3599,4834	89,5562
3600,4478	89,6977
3601,4119	89,8428
3602,3762	89,9849
3603,3403	90,1225
3604,3047	90,2636
3605,2688	90,423
3606,2332	90,6138
3607,1973	90,835
3608,1616	91,0644
3609,1257	91,2715
3610,0901	91,4392
3611,0542	91,5717
3612,0186	91,6823
3612,9827	91,7806
3613,9470	91,8691
3614,9111	91,9495
3615,8755	92,0307
3616,8396	92,1317
3617,8040	92,2745
3618,7681	92,4659
3619,7324	92,6814
3620,6965	92,8801
3621,6609	93,0371
3622,6250	93,1531
3623,5894	93,2417
3624,5535	93,3179
3625,5178	93,3969
3626,4819	93,4958
3627,4463	93,629
3628,4104	93,7913
3629,3748	93,9503
3630,3389	94,0826
3631,3032	94,1973
3632,2673	94,316
3633,2317	94,4522
3634,1958	94,606
3635,1602	94,766
3636,1243	94,9168
3637,0886	95,0498
3638,0527	95,1681
3639,0171	95,2829
3639,9812	95,4045
3640,9456	95,5361
3641,9097	95,6733
3642,8740	95,8106
3643,8381	95,9463
3644,8025	96,0849
3645,7666	96,2342
3646,7310	96,3996
3647,6951	96,568
3648,6594	96,6974
3649,6235	96,7616
3650,5879	96,7937
3651,5520	96,8333
3652,5164	96,8943
3653,4805	96,9771
3654,4448	97,0768
3655,4089	97,1818
3656,3733	97,2735
3657,3374	97,3362
3658,3018	97,3708
3659,2659	97,3953
3660,2302	97,4338
3661,1943	97,5053
3662,1587	97,6149
3663,1228	97,7508
3664,0872	97,8891
3665,0513	98,0063
3666,0156	98,0883
3666,9797	98,1327
3667,9441	98,1482
3668,9082	98,1548
3669,8726	98,1734
3670,8367	98,2091
3671,8010	98,2528
3672,7651	98,2971
3673,7295	98,3459
3674,6936	98,4088
3675,6580	98,4849
3676,6221	98,5526
3677,5864	98,5898
3678,5505	98,5935
3679,5149	98,574
3680,4790	98,5436
3681,4434	98,513
3682,4075	98,4889
3683,3718	98,4736
3684,3359	98,4644
3685,3003	98,4569
3686,2644	98,4485
3687,2288	98,4429
3688,1929	98,4525
3689,1572	98,4882
3690,1213	98,54
3691,0857	98,5815
3692,0498	98,596
3693,0142	98,5836
3693,9783	98,5535
3694,9426	98,5179
3695,9067	98,4881
3696,8711	98,4711
3697,8352	98,4686
3698,7996	98,4785
3699,7637	98,498
3700,7280	98,5257
3701,6921	98,5598
3702,6565	98,595
3703,6206	98,6238
3704,5850	98,64
3705,5491	98,6422
3706,5134	98,6329
3707,4775	98,6167
3708,4419	98,5979
3709,4060	98,5775
3710,3704	98,5524
3711,3345	98,5204
3712,2988	98,4885
3713,2629	98,4676
3714,2273	98,4644
3715,1914	98,4799
3716,1558	98,5117
3717,1199	98,5543
3718,0842	98,5977
3719,0483	98,6267
3720,0127	98,6238
3720,9768	98,5769
3721,9412	98,488
3722,9053	98,3763
3723,8696	98,2732
3724,8337	98,2072
3725,7981	98,1879
3726,7622	98,2027
3727,7266	98,2309
3728,6907	98,2584
3729,6550	98,2836
3730,6191	98,3142
3731,5835	98,3617
3732,5476	98,431
3733,5120	98,5052
3734,4761	98,5413
3735,4404	98,5087
3736,4045	98,4293
3737,3689	98,3461
3738,3330	98,2811
3739,2974	98,234
3740,2615	98,1973
3741,2258	98,1659
3742,1899	98,1434
3743,1543	98,143
3744,1184	98,1769
3745,0828	98,2346
3746,0469	98,2837
3747,0112	98,2946
3747,9753	98,2508
3748,9397	98,1499
3749,9038	98,016
3750,8682	97,9069
3751,8323	97,8666
3752,7966	97,8805
3753,7607	97,9122
3754,7251	97,9407
3755,6892	97,9623
3756,6536	97,9808
3757,6177	97,9998
3758,5820	98,0172
3759,5461	98,0243
3760,5105	98,0141
3761,4746	97,9871
3762,4390	97,9507
3763,4031	97,9157
3764,3674	97,8923
3765,3315	97,8856
3766,2959	97,8918
3767,2600	97,8996
3768,2244	97,8969
3769,1885	97,8809
3770,1528	97,8593
3771,1169	97,8431
3772,0813	97,8367
3773,0454	97,8359
3774,0098	97,8328
3774,9739	97,8212
3775,9382	97,7986
3776,9023	97,7678
3777,8667	97,7359
3778,8308	97,7113
3779,7952	97,6974
3780,7593	97,6913
3781,7236	97,6886
3782,6877	97,6871
3783,6521	97,6879
3784,6162	97,693
3785,5806	97,703
3786,5447	97,7163
3787,5090	97,7291
3788,4731	97,7367
3789,4375	97,7339
3790,4016	97,7167
3791,3660	97,6826
3792,3301	97,633
3793,2944	97,574
3794,2585	97,5164
3795,2229	97,4714
3796,1870	97,445
3797,1514	97,4333
3798,1155	97,4258
3799,0798	97,4132
3800,0439	97,3957
3801,0083	97,384
3801,9724	97,389
3802,9368	97,4101
3803,9009	97,4364
3804,8652	97,4566
3805,8293	97,4636
3806,7937	97,4552
3807,7578	97,4341
3808,7222	97,4061
3809,6863	97,3756
3810,6506	97,3444
3811,6147	97,3137
3812,5791	97,2866
3813,5432	97,2698
3814,5076	97,2727
3815,4717	97,3006
3816,4360	97,3472
3817,4001	97,3971
3818,3645	97,434
3819,3286	97,4459
3820,2930	97,4273
3821,2571	97,3843
3822,2214	97,3313
3823,1855	97,28
3824,1499	97,2338
3825,1140	97,1923
3826,0784	97,1562
3827,0425	97,1284
3828,0068	97,1129
3828,9709	97,1109
3829,9353	97,1192
3830,8994	97,1306
3831,8638	97,1366
3832,8279	97,1305
3833,7922	97,109
3834,7563	97,0723
3835,7207	97,0245
3836,6848	96,975
3837,6492	96,9373
3838,6133	96,9227
3839,5776	96,929
3840,5417	96,9418
3841,5061	96,947
3842,4702	96,9405
3843,4346	96,9286
3844,3987	96,9225
3845,3630	96,9305
3846,3271	96,9532
3847,2915	96,9834
3848,2556	97,0089
3849,2200	97,0147
3850,1841	96,984
3851,1484	96,9038
3852,1125	96,7879
3853,0769	96,7018
3854,0410	96,7035
3855,0054	96,7635
3855,9697	96,8252
3856,9338	96,863
3857,8982	96,874
3858,8623	96,8624
3859,8267	96,8344
3860,7908	96,7983
3861,7551	96,7663
3862,7192	96,7505
3863,6836	96,7536
3864,6477	96,7633
3865,6121	96,7611
3866,5762	96,7358
3867,5405	96,6882
3868,5046	96,6313
3869,4690	96,5871
3870,4331	96,5762
3871,3975	96,6015
3872,3616	96,6453
3873,3259	96,6837
3874,2900	96,7022
3875,2544	96,6977
3876,2185	96,673
3877,1829	96,6326
3878,1470	96,5822
3879,1113	96,5292
3880,0754	96,4836
3881,0398	96,4535
3882,0039	96,4416
3882,9683	96,4448
3883,9324	96,4587
3884,8967	96,4786
3885,8608	96,4994
3886,8252	96,515
3887,7893	96,5206
3888,7537	96,5132
3889,7178	96,4938
3890,6821	96,4672
3891,6462	96,4419
3892,6106	96,4238
3893,5747	96,4123
3894,5391	96,4021
3895,5032	96,3898
3896,4675	96,3759
3897,4316	96,3643
3898,3960	96,3594
3899,3601	96,3604
3900,3245	96,359
3901,2886	96,3446
3902,2529	96,3169
3903,2170	96,2904
3904,1814	96,2825
3905,1455	96,2973
3906,1099	96,3234
3907,0740	96,346
3908,0383	96,355
3909,0024	96,347
3909,9668	96,3238
3910,9309	96,2891
3911,8953	96,2467
3912,8594	96,1992
3913,8237	96,1503
3914,7878	96,1074
3915,7522	96,0827
3916,7163	96,0872
3917,6807	96,1202
3918,6448	96,1649
3919,6091	96,1989
3920,5732	96,2073
3921,5376	96,1876
3922,5017	96,1476
3923,4661	96,1021
3924,4302	96,0664
3925,3945	96,0495
3926,3586	96,0509
3927,3230	96,0635
3928,2871	96,0781
3929,2515	96,0855
3930,2156	96,0777
3931,1799	96,0524
3932,1440	96,0171
3933,1084	95,9859
3934,0725	95,9699
3935,0369	95,9705
3936,0010	95,9799
3936,9653	95,9867
3937,9294	95,9811
3938,8938	95,9606
3939,8579	95,9307
3940,8223	95,9026
3941,7864	95,886
3942,7507	95,8818
3943,7148	95,8821
3944,6792	95,8769
3945,6433	95,8617
3946,6077	95,8398
3947,5718	95,8184
3948,5361	95,8033
3949,5002	95,7943
3950,4646	95,7865
3951,4287	95,7757
3952,3931	95,7627
3953,3572	95,7524
3954,3215	95,7489
3955,2856	95,7518
3956,2500	95,7564
3957,2141	95,7577
3958,1785	95,7552
3959,1426	95,7537
3960,1069	95,7585
3961,0710	95,7691
3962,0354	95,7766
3962,9995	95,7691
3963,9639	95,7407
3964,9280	95,6967
3965,8923	95,6513
3966,8564	95,6202
3967,8208	95,6122
3968,7849	95,6246
3969,7493	95,6458
3970,7134	95,6615
3971,6777	95,6625
3972,6418	95,6479
3973,6062	95,6239
3974,5703	95,599
3975,5347	95,5801
3976,4988	95,5692
3977,4631	95,5644
3978,4272	95,5622
3979,3916	95,5597
3980,3557	95,5567
3981,3201	95,5544
3982,2842	95,5537
3983,2485	95,5532
3984,2126	95,5494
3985,1770	95,5395
3986,1411	95,5243
3987,1055	95,5088
3988,0696	95,4991
3989,0339	95,4981
3989,9980	95,5031
3990,9624	95,5078
3991,9265	95,5075
3992,8909	95,5024
3993,8550	95,4971
3994,8193	95,4948
3995,7834	95,4941
3996,7478	95,489
3997,7119	95,475
3998,6763	95,4535
3999,6404	95,4318
4000,6047	95,4184

##### Extended Information
[Comments]
Sample name	CA
Comment
User
Division
Company	ICMAB

[Detailed Information]
Creation date	05/11/2024 12:01

Data array type	Linear data array
Horizontal axis	Wavenumber [cm-1]
Vertical axis	%T
Start	399,193 cm-1
End	4000,6 cm-1
Data interval	0,964233 cm-1
Data points	3736    

[Measurement Information]
Model Name	FT/IR-4700typeA
Serial Number	C033961788

Accessory	ATR-PRO-ONE
Accessory S/N	B102761809
Incident angle	45 deg

Measurement Date	29/10/2024 16:21

Light Source	Standard
Detector	TGS
Accumulation	32
Resolution	4 cm-1
Zero Filling	On
Apodization	Cosine
Gain	Auto (16)
Aperture	Auto (7.1 mm)
Scanning Speed	Auto (2 mm/sec)
Filter	Auto (30000 Hz)

