TITLE	N-GQD_CA_NO2
DATA TYPE	INFRARED SPECTRUM
ORIGIN	JASCO
OWNER	
DATE	24/11/25
TIME	19:34:58
SPECTROMETER/DATA SYSTEM	
LOCALE	3082
RESOLUTION	
DELTAX	0,964233
XUNITS	1/CM
YUNITS	TRANSMITTANCE
FIRSTX	  399,1927
LASTX	 4000,6047
NPOINTS	    3736
FIRSTY	    80,91935
MAXY	    99,79958
MINY	    13,16653
XYDATA
399,1927	80,9193
400,1569	83,4618
401,1211	83,4892
402,0854	82,3348
403,0496	81,2882
404,0138	81,1216
404,9781	82,051
405,9423	83,7415
406,9065	85,4088
407,8708	86,1608
408,8350	85,4668
409,7992	83,4658
410,7635	80,9195
411,7277	78,794
412,6919	77,6858
413,6562	77,5294
414,6204	77,7755
415,5846	77,7531
416,5489	76,9551
417,5131	75,3385
418,4773	73,7056
419,4416	73,3876
420,4058	74,7185
421,3700	76,6465
422,3343	78,1036
423,2985	78,7083
424,2627	78,5994
425,2270	78,1806
426,1912	77,9078
427,1554	78,085
428,1197	78,7556
429,0839	79,7432
430,0481	80,7671
431,0124	81,5457
431,9766	81,8721
432,9408	81,6724
433,9051	81,0376
434,8693	80,2013
435,8335	79,4484
436,7978	78,9877
437,7620	78,8754
438,7262	79,0429
439,6905	79,387
440,6547	79,8338
441,6189	80,3284
442,5832	80,774
443,5474	81,0017
444,5116	80,8452
445,4759	80,277
446,4401	79,4611
447,4043	78,6653
448,3686	78,1133
449,3328	77,8793
450,2970	77,8716
451,2613	77,9063
452,2255	77,8247
453,1897	77,5728
454,1540	77,1875
455,1182	76,7271
456,0824	76,2294
457,0467	75,7382
458,0109	75,354
458,9751	75,2074
459,9394	75,344
460,9036	75,6595
461,8678	75,9612
462,8321	76,0818
463,7963	75,9622
464,7605	75,6816
465,7248	75,4189
466,6890	75,3504
467,6532	75,546
468,6175	75,9393
469,5817	76,3764
470,5459	76,6857
471,5102	76,7309
472,4744	76,4506
473,4386	75,8805
474,4029	75,1371
475,3671	74,3683
476,3313	73,7089
477,2956	73,2575
478,2598	73,0648
479,2240	73,1229
480,1883	73,3662
481,1525	73,689
482,1167	73,9733
483,0810	74,114
484,0452	74,0372
485,0094	73,7159
485,9737	73,1764
486,9379	72,4877
487,9021	71,7423
488,8664	71,0397
489,8306	70,474
490,7948	70,1154
491,7591	69,9919
492,7233	70,0858
493,6875	70,3536
494,6518	70,7398
495,6160	71,164
496,5802	71,4971
497,5445	71,5758
498,5087	71,2826
499,4729	70,6671
500,4372	70,0228
501,4014	69,8128
502,3656	70,4022
503,3299	71,7442
504,2941	73,2959
505,2583	74,2832
506,2226	74,1341
507,1868	72,7858
508,1510	70,691
509,1153	68,546
510,0795	66,9282
511,0437	66,0694
512,0080	65,8646
512,9722	66,0349
513,9365	66,3012
514,9007	66,4825
515,8649	66,5147
516,8292	66,4284
517,7934	66,3105
518,7576	66,2549
519,7219	66,3141
520,6861	66,481
521,6503	66,7083
522,6146	66,9445
523,5788	67,1668
524,5430	67,3997
525,5073	67,7057
526,4715	68,1399
527,4357	68,6962
528,4000	69,2972
529,3642	69,8379
530,3284	70,2411
531,2927	70,4921
532,2569	70,6432
533,2211	70,7881
534,1854	71,0158
535,1496	71,3677
536,1138	71,8274
537,0781	72,3462
538,0423	72,8836
539,0065	73,4302
539,9708	73,9992
540,9350	74,5964
541,8992	75,2009
542,8635	75,7747
543,8277	76,2977
544,7919	76,7963
545,7562	77,3366
546,7204	77,9797
547,6846	78,7296
548,6489	79,5198
549,6131	80,2536
550,5773	80,8687
551,5416	81,3753
552,5058	81,8401
553,4700	82,3354
554,4343	82,8927
555,3985	83,493
556,3627	84,0948
557,3270	84,6717
558,2912	85,2287
559,2554	85,7851
560,2197	86,3421
561,1839	86,8669
562,1481	87,3085
563,1124	87,6371
564,0766	87,8746
565,0408	88,0933
566,0051	88,3818
566,9693	88,7985
567,9335	89,3392
568,8978	89,9394
569,8620	90,5119
570,8262	90,995
571,7905	91,3738
572,7547	91,6673
573,7189	91,9017
574,6832	92,0944
575,6474	92,2557
576,6116	92,3992
577,5759	92,5465
578,5401	92,7172
579,5043	92,9161
580,4686	93,1281
581,4328	93,3291
582,3970	93,5043
583,3613	93,6592
584,3255	93,8149
585,2897	93,989
586,2540	94,1784
587,2182	94,3579
588,1824	94,4939
589,1467	94,5638
590,1109	94,5724
591,0751	94,5545
592,0394	94,5616
593,0036	94,636
593,9678	94,7888
594,9321	95,0008
595,8963	95,2403
596,8605	95,483
597,8248	95,7178
598,7890	95,9366
599,7532	96,1199
600,7175	96,2351
601,6817	96,2561
602,6459	96,1922
603,6102	96,0994
604,5744	96,057
605,5386	96,1229
606,5029	96,2968
607,4671	96,5203
608,4313	96,7139
609,3956	96,8185
610,3598	96,8054
611,3240	96,6495
612,2883	96,3026
613,2525	95,7092
614,2167	94,8712
615,1810	93,9195
616,1452	93,1189
617,1094	92,7642
618,0737	93,007
619,0379	93,7464
620,0021	94,6837
620,9664	95,4958
621,9306	95,9926
622,8948	96,1665
623,8591	96,1359
624,8233	96,0349
625,7875	95,9254
626,7518	95,7837
627,7160	95,5589
628,6802	95,239
629,6445	94,8684
630,6087	94,5124
631,5729	94,2059
632,5372	93,9289
633,5014	93,6208
634,4656	93,2199
635,4299	92,6964
636,3941	92,0594
637,3583	91,3422
638,3226	90,5824
639,2868	89,8122
640,2510	89,0531
641,2153	88,3086
642,1795	87,5526
643,1437	86,7268
644,1080	85,761
645,0722	84,616
646,0364	83,3306
647,0007	82,0403
647,9649	80,9454
648,9291	80,2283
649,8934	79,9571
650,8576	80,039
651,8218	80,2671
652,7861	80,4368
653,7503	80,4525
654,7145	80,3555
655,6788	80,2648
656,6430	80,2866
657,6072	80,4688
658,5715	80,8289
659,5357	81,4035
660,4999	82,236
661,4642	83,2859
662,4284	84,3453
663,3926	85,0462
664,3569	84,9121
665,3211	83,4048
666,2853	80,0978
667,2496	75,3154
668,2138	70,9789
669,1780	69,5489
670,1423	71,2263
671,1065	74,2132
672,0707	76,9493
673,0350	78,7668
673,9992	79,5731
674,9634	79,5855
675,9277	79,1925
676,8919	78,7895
677,8561	78,6117
678,8204	78,6916
679,7846	78,95
680,7488	79,3032
681,7131	79,7069
682,6773	80,1447
683,6415	80,606
684,6058	81,0828
685,5700	81,5794
686,5342	82,1169
687,4985	82,722
688,4627	83,4083
689,4269	84,1653
690,3912	84,9625
691,3554	85,7653
692,3196	86,5485
693,2839	87,3034
694,2481	88,0336
695,2123	88,7476
696,1766	89,4493
697,1408	90,1336
698,1050	90,7901
699,0693	91,4127
700,0335	92,0072
700,9977	92,59
701,9620	93,1759
702,9262	93,7637
703,8904	94,3326
704,8547	94,8523
705,8189	95,2993
706,7831	95,6666
707,7474	95,9588
708,7116	96,1848
709,6758	96,3592
710,6401	96,5117
711,6043	96,6861
712,5685	96,9103
713,5328	97,1479
714,4970	97,2729
715,4612	97,1101
716,4255	96,537
717,3897	95,5931
718,3539	94,5238
719,3182	93,7026
720,2824	93,4452
721,2466	93,8225
722,2109	94,6223
723,1751	95,4921
724,1393	96,1441
725,1036	96,4781
726,0678	96,5717
727,0320	96,5795
727,9963	96,62
728,9605	96,7188
729,9247	96,8304
730,8890	96,9027
731,8532	96,9236
732,8174	96,9203
733,7817	96,9263
734,7459	96,9511
735,7101	96,9764
736,6744	96,9766
737,6386	96,9403
738,6028	96,8762
739,5671	96,8035
740,5313	96,7362
741,4955	96,6759
742,4598	96,6145
743,4240	96,5436
744,3882	96,4621
745,3525	96,3769
746,3167	96,2976
747,2809	96,2298
748,2452	96,1709
749,2094	96,1134
750,1736	96,0529
751,1379	95,9951
752,1021	95,9557
753,0663	95,9476
754,0306	95,9653
754,9948	95,9769
755,9590	95,9361
756,9233	95,8112
757,8875	95,6124
758,8517	95,3968
759,8160	95,2418
760,7802	95,2019
761,7444	95,2758
762,7087	95,4048
763,6729	95,5048
764,6371	95,5109
765,6014	95,4074
766,5656	95,2237
767,5298	95,0048
768,4941	94,7817
769,4583	94,561
770,4225	94,3382
771,3868	94,1175
772,3510	93,9195
773,3152	93,7677
774,2795	93,6683
775,2437	93,5975
776,2079	93,5111
777,1722	93,3686
778,1364	93,1565
779,1006	92,8941
780,0649	92,6191
781,0291	92,3641
781,9933	92,1393
782,9576	91,9315
783,9218	91,7155
784,8860	91,4701
785,8503	91,1877
786,8145	90,8747
787,7787	90,5453
788,7430	90,2147
789,7072	89,8949
790,6714	89,5951
791,6357	89,3224
792,5999	89,0794
793,5641	88,8618
794,5284	88,6557
795,4926	88,4401
796,4568	88,1945
797,4211	87,9086
798,3853	87,5884
799,3495	87,2516
800,3138	86,917
801,2780	86,5919
802,2422	86,2681
803,2065	85,9305
804,1707	85,5707
805,1349	85,1965
806,0992	84,8279
807,0634	84,4823
808,0276	84,1584
808,9919	83,8344
809,9561	83,4814
810,9203	83,0865
811,8846	82,6663
812,8488	82,2604
813,8130	81,9062
814,7773	81,6128
815,7415	81,3525
816,7057	81,0761
817,6700	80,7416
818,6342	80,3336
819,5984	79,8593
820,5627	79,3247
821,5269	78,7135
822,4911	77,9866
823,4554	77,105
824,4196	76,0572
825,3839	74,8628
826,3481	73,5471
827,3123	72,1039
828,2766	70,4865
829,2408	68,6504
830,2050	66,6349
831,1693	64,6362
832,1335	63,0146
833,0977	62,2098
834,0620	62,5898
835,0262	64,3009
835,9904	67,1925
836,9547	70,8518
837,9189	74,7322
838,8831	78,3135
839,8474	81,2306
840,8116	83,3305
841,7758	84,6535
842,7401	85,3652
843,7043	85,6736
844,6685	85,7621
845,6328	85,7554
846,5970	85,7173
847,5612	85,6704
848,5255	85,6198
849,4897	85,5707
850,4539	85,5317
851,4182	85,5081
852,3824	85,4952
853,3466	85,4768
854,3109	85,4328
855,2751	85,3499
856,2393	85,2283
857,2036	85,0809
858,1678	84,9267
859,1320	84,7825
860,0963	84,6585
861,0605	84,5575
862,0247	84,475
862,9890	84,4009
863,9532	84,3203
864,9174	84,2164
865,8817	84,0767
866,8459	83,9005
867,8101	83,7043
868,7744	83,5197
869,7386	83,3817
870,7028	83,3131
871,6671	83,3116
872,6313	83,3475
873,5955	83,3774
874,5598	83,3661
875,5240	83,3043
876,4882	83,2135
877,4525	83,133
878,4167	83,0988
879,3809	83,1281
880,3452	83,2163
881,3094	83,3472
882,2736	83,5037
883,2379	83,6718
884,2021	83,8349
885,1663	83,9673
886,1306	84,036
887,0948	84,0145
888,0590	83,898
889,0233	83,7105
889,9875	83,4951
890,9517	83,2927
891,9160	83,1229
892,8802	82,9778
893,8444	82,8311
894,8087	82,6555
895,7729	82,4357
896,7371	82,1724
897,7014	81,8767
898,6656	81,5629
899,6298	81,2442
900,5941	80,9312
901,5583	80,6319
902,5225	80,3498
903,4868	80,0823
904,4510	79,8216
905,4152	79,5583
906,3795	79,2859
907,3437	79,0022
908,3079	78,7071
909,2722	78,3979
910,2364	78,0683
911,2006	77,7102
912,1649	77,3198
913,1291	76,9014
914,0933	76,4665
915,0576	76,0294
916,0218	75,6011
916,9860	75,1862
917,9503	74,7833
918,9145	74,3872
919,8787	73,9915
920,8430	73,591
921,8072	73,1833
922,7714	72,7701
923,7357	72,3586
924,6999	71,9588
925,6641	71,5812
926,6284	71,2323
927,5926	70,9125
928,5568	70,6162
929,5211	70,3343
930,4853	70,0564
931,4495	69,7737
932,4138	69,48
933,3780	69,1738
934,3422	68,858
935,3065	68,5391
936,2707	68,2243
937,2349	67,918
938,1992	67,6212
939,1634	67,3313
940,1276	67,0457
941,0919	66,7628
942,0561	66,4829
943,0203	66,2065
943,9846	65,9338
944,9488	65,665
945,9130	65,4023
946,8773	65,1494
947,8415	64,9103
948,8057	64,6869
949,7700	64,4772
950,7342	64,2777
951,6984	64,0861
952,6627	63,9045
953,6269	63,7387
954,5911	63,5939
955,5554	63,4705
956,5196	63,3619
957,4838	63,257
958,4481	63,1454
959,4123	63,0237
960,3765	62,8979
961,3408	62,7813
962,3050	62,6874
963,2692	62,6232
964,2335	62,5832
965,1977	62,5507
966,1619	62,504
967,1262	62,4257
968,0904	62,3116
969,0546	62,1721
970,0189	62,0276
970,9831	61,8978
971,9473	61,7929
972,9116	61,7099
973,8758	61,6359
974,8400	61,5579
975,8043	61,4711
976,7685	61,3821
977,7327	61,3057
978,6970	61,2566
979,6612	61,2431
980,6254	61,2646
981,5897	61,315
982,5539	61,3879
983,5181	61,4808
984,4824	61,5948
985,4466	61,7331
986,4108	61,898
987,3751	62,0903
988,3393	62,3098
989,3035	62,5554
990,2678	62,8245
991,2320	63,1108
992,1962	63,4045
993,1605	63,6942
994,1247	63,9699
995,0889	64,2264
996,0532	64,4634
997,0174	64,683
997,9816	64,8856
998,9459	65,0668
999,9101	65,2171
1000,8743	65,3235
1001,8386	65,3732
1002,8028	65,3579
1003,7670	65,2769
1004,7313	65,1387
1005,6955	64,9596
1006,6597	64,7588
1007,6240	64,5515
1008,5882	64,3434
1009,5524	64,1292
1010,5167	63,8968
1011,4809	63,6347
1012,4451	63,3391
1013,4094	63,0149
1014,3736	62,6731
1015,3378	62,3253
1016,3021	61,9809
1017,2663	61,6482
1018,2305	61,3356
1019,1948	61,049
1020,1590	60,7841
1021,1232	60,5198
1022,0875	60,2203
1023,0517	59,8501
1024,0160	59,3957
1024,9802	58,8795
1025,9445	58,3562
1026,9087	57,8866
1027,8729	57,5048
1028,8372	57,1971
1029,8014	56,9053
1030,7656	56,5542
1031,7299	56,0841
1032,6941	55,4739
1033,6583	54,7437
1034,6226	53,9418
1035,5868	53,1247
1036,5510	52,3391
1037,5153	51,6113
1038,4795	50,9441
1039,4437	50,3212
1040,4080	49,7182
1041,3722	49,1166
1042,3364	48,5166
1043,3007	47,939
1044,2649	47,4165
1045,2291	46,9775
1046,1934	46,6332
1047,1576	46,3763
1048,1218	46,1893
1049,0861	46,0566
1050,0503	45,9694
1051,0145	45,9216
1051,9788	45,9023
1052,9430	45,8932
1053,9072	45,877
1054,8715	45,8494
1055,8357	45,8274
1056,7999	45,8419
1057,7642	45,9179
1058,7284	46,0514
1059,6926	46,1999
1060,6569	46,296
1061,6211	46,2799
1062,5853	46,1351
1063,5496	45,9059
1064,5138	45,6853
1065,4780	45,5748
1066,4423	45,6371
1067,4065	45,8666
1068,3707	46,1954
1069,3350	46,5293
1070,2992	46,7919
1071,2634	46,9527
1072,2277	47,0296
1073,1919	47,0694
1074,1561	47,1223
1075,1204	47,2245
1076,0846	47,3933
1077,0488	47,6335
1078,0131	47,944
1078,9773	48,3226
1079,9415	48,7644
1080,9058	49,26
1081,8700	49,7952
1082,8342	50,3524
1083,7985	50,9151
1084,7627	51,4731
1085,7269	52,0258
1086,6912	52,5825
1087,6554	53,1577
1088,6196	53,7623
1089,5839	54,3957
1090,5481	55,0433
1091,5123	55,6819
1092,4766	56,2886
1093,4408	56,85
1094,4050	57,3641
1095,3693	57,8362
1096,3335	58,2726
1097,2977	58,677
1098,2620	59,0516
1099,2262	59,4015
1100,1904	59,737
1101,1547	60,0719
1102,1189	60,4175
1103,0831	60,7775
1104,0474	61,147
1105,0116	61,5159
1105,9758	61,8749
1106,9401	62,2204
1107,9043	62,5549
1108,8685	62,8839
1109,8328	63,2118
1110,7970	63,5393
1111,7612	63,864
1112,7255	64,1824
1113,6897	64,4918
1114,6539	64,7903
1115,6182	65,075
1116,5824	65,3416
1117,5466	65,5838
1118,5109	65,7965
1119,4751	65,9778
1120,4393	66,1307
1121,4036	66,2622
1122,3678	66,3802
1123,3320	66,4906
1124,2963	66,5957
1125,2605	66,6944
1126,2247	66,784
1127,1890	66,8617
1128,1532	66,9255
1129,1174	66,9737
1130,0817	67,0051
1131,0459	67,019
1132,0101	67,0163
1132,9744	67,0007
1133,9386	66,9781
1134,9028	66,9549
1135,8671	66,9359
1136,8313	66,9231
1137,7955	66,9157
1138,7598	66,9117
1139,7240	66,9095
1140,6882	66,9081
1141,6525	66,9063
1142,6167	66,9035
1143,5809	66,8995
1144,5452	66,896
1145,5094	66,896
1146,4736	66,9017
1147,4379	66,9133
1148,4021	66,9279
1149,3663	66,9431
1150,3306	66,9596
1151,2948	66,9831
1152,2590	67,0219
1153,2233	67,0829
1154,1875	67,1676
1155,1517	67,2719
1156,1160	67,3898
1157,0802	67,517
1158,0444	67,6533
1159,0087	67,8005
1159,9729	67,9599
1160,9371	68,1295
1161,9014	68,305
1162,8656	68,4812
1163,8298	68,6541
1164,7941	68,8221
1165,7583	68,9862
1166,7225	69,1495
1167,6868	69,3174
1168,6510	69,4956
1169,6152	69,6881
1170,5795	69,895
1171,5437	70,1118
1172,5079	70,3318
1173,4722	70,5493
1174,4364	70,7621
1175,4006	70,9715
1176,3649	71,179
1177,3291	71,3837
1178,2933	71,5818
1179,2576	71,7685
1180,2218	71,9425
1181,1860	72,1073
1182,1503	72,2704
1183,1145	72,4383
1184,0787	72,6135
1185,0430	72,7931
1186,0072	72,9702
1186,9714	73,1372
1187,9357	73,2877
1188,8999	73,4177
1189,8641	73,5249
1190,8284	73,6086
1191,7926	73,6694
1192,7568	73,71
1193,7211	73,7353
1194,6853	73,7505
1195,6495	73,7601
1196,6138	73,7651
1197,5780	73,7638
1198,5422	73,752
1199,5065	73,8219
1200,4707	73,7656
1201,4349	73,6881
1202,3992	73,5883
1203,3634	73,4653
1204,3276	73,3194
1205,2919	73,1522
1206,2561	72,9668
1207,2203	72,7663
1208,1846	72,5516
1209,1488	72,3206
1210,1130	72,0692
1211,0773	71,7942
1212,0415	71,4954
1213,0057	71,1764
1213,9700	70,8431
1214,9342	70,5005
1215,8984	70,1513
1216,8627	69,7963
1217,8269	69,4359
1218,7911	69,0702
1219,7554	68,7003
1220,7196	68,3283
1221,6838	67,9566
1222,6481	67,5884
1223,6123	67,2267
1224,5765	66,8745
1225,5408	66,5343
1226,5050	66,2082
1227,4692	65,8982
1228,4335	65,6062
1229,3977	65,3347
1230,3619	65,0869
1231,3262	64,867
1232,2904	64,679
1233,2546	64,5241
1234,2189	64,3959
1235,1831	64,2777
1236,1473	64,1445
1237,1116	63,9723
1238,0758	63,7507
1239,0400	63,4924
1240,0043	63,2311
1240,9685	63,0079
1241,9327	62,8512
1242,8970	62,7613
1243,8612	62,7114
1244,8254	62,6621
1245,7897	62,5836
1246,7539	62,4705
1247,7181	62,3417
1248,6824	62,2289
1249,6466	62,1604
1250,6108	62,1499
1251,5751	62,1953
1252,5393	62,2835
1253,5035	62,3985
1254,4678	62,5271
1255,4320	62,6623
1256,3962	62,8038
1257,3605	62,956
1258,3247	63,1252
1259,2889	63,3169
1260,2532	63,533
1261,2174	63,772
1262,1816	64,0319
1263,1459	64,3125
1264,1101	64,6154
1265,0743	64,9414
1266,0386	65,2875
1267,0028	65,646
1267,9670	66,0083
1268,9313	66,3681
1269,8955	66,7244
1270,8597	67,0797
1271,8240	67,4365
1272,7882	67,7935
1273,7524	68,1461
1274,7167	68,488
1275,6809	68,8149
1276,6451	69,1258
1277,6094	69,4227
1278,5736	69,7097
1279,5378	69,9908
1280,5021	70,2679
1281,4663	70,5394
1282,4305	70,8
1283,3948	71,0417
1284,3590	71,2562
1285,3232	71,4391
1286,2875	71,5916
1287,2517	71,721
1288,2159	71,8368
1289,1802	71,9454
1290,1444	72,0462
1291,1086	72,1324
1292,0729	72,1947
1293,0371	72,2271
1294,0013	72,2292
1294,9656	72,2061
1295,9298	72,1644
1296,8940	72,1079
1297,8583	72,0356
1298,8225	71,9428
1299,7867	71,8252
1300,7510	71,6817
1301,7152	71,5135
1302,6794	71,3242
1303,6437	71,1163
1304,6079	70,891
1305,5721	70,649
1306,5364	70,3913
1307,5006	70,1183
1308,4648	69,8276
1309,4291	69,5135
1310,3933	69,1707
1311,3575	68,7996
1312,3218	68,4093
1313,2860	68,0139
1314,2502	67,6229
1315,2145	67,2337
1316,1787	66,8337
1317,1429	66,41
1318,1072	65,9613
1319,0714	65,5005
1320,0356	65,0464
1320,9999	64,6109
1321,9641	64,1932
1322,9283	63,7841
1323,8926	63,3745
1324,8568	62,9602
1325,8210	62,542
1326,7853	62,1211
1327,7495	61,6961
1328,7137	61,2636
1329,6780	60,8217
1330,6422	60,374
1331,6064	59,9293
1332,5707	59,4975
1333,5349	59,0815
1334,4991	58,6724
1335,4634	58,2498
1336,4276	57,7904
1337,3918	57,2873
1338,3561	56,7718
1339,3203	56,309
1340,2845	55,9543
1341,2488	55,7119
1342,2130	55,5454
1343,1772	55,4137
1344,1415	55,2916
1345,1057	55,1714
1346,0699	55,0594
1347,0342	54,972
1347,9984	54,9273
1348,9626	54,9372
1349,9269	55,0021
1350,8911	55,1147
1351,8553	55,2669
1352,8196	55,4548
1353,7838	55,678
1354,7480	55,9313
1355,7123	56,1986
1356,6765	56,4564
1357,6407	56,686
1358,6050	56,8849
1359,5692	57,0688
1360,5334	57,2698
1361,4977	57,5236
1362,4619	57,8384
1363,4261	58,173
1364,3904	58,468
1365,3546	58,6976
1366,3188	58,8768
1367,2831	59,0345
1368,2473	59,1897
1369,2115	59,3454
1370,1758	59,4945
1371,1400	59,6325
1372,1042	59,7656
1373,0685	59,9123
1374,0327	60,0921
1374,9969	60,306
1375,9612	60,5297
1376,9254	60,738
1377,8896	60,9271
1378,8539	61,1096
1379,8181	61,2962
1380,7823	61,4843
1381,7466	61,6636
1382,7108	61,8303
1383,6750	61,997
1384,6393	62,1897
1385,6035	62,4345
1386,5677	62,7317
1387,5320	63,0249
1388,4962	63,219
1389,4604	63,2557
1390,4247	63,154
1391,3889	62,9798
1392,3531	62,8065
1393,3174	62,7058
1394,2816	62,744
1395,2458	62,9529
1396,2101	63,2904
1397,1743	63,6508
1398,1385	63,9314
1399,1028	64,0867
1400,0670	64,1285
1401,0313	64,099
1401,9955	64,0471
1402,9597	64,0173
1403,9240	64,0467
1404,8882	64,1571
1405,8524	64,3434
1406,8167	64,5759
1407,7809	64,8292
1408,7451	65,107
1409,7094	65,4353
1410,6736	65,8326
1411,6378	66,2844
1412,6021	66,7474
1413,5663	67,1849
1414,5305	67,5999
1415,4948	68,0377
1416,4590	68,5702
1417,4232	69,2694
1418,3875	70,1308
1419,3517	71,0004
1420,3159	71,6873
1421,2802	72,1618
1422,2444	72,5452
1423,2086	72,9667
1424,1729	73,4738
1425,1371	74,0334
1426,1013	74,587
1427,0656	75,1048
1428,0298	75,6002
1428,9940	76,1031
1429,9583	76,6204
1430,9225	77,1248
1431,8867	77,5902
1432,8510	78,0302
1433,8152	78,4921
1434,7794	79,0266
1435,7437	79,6572
1436,7079	80,3333
1437,6721	80,9194
1438,6364	81,316
1439,6006	81,5636
1440,5648	81,7754
1441,5291	82,0285
1442,4933	82,3283
1443,4575	82,6329
1444,4218	82,8991
1445,3860	83,1169
1446,3502	83,3142
1447,3145	83,5317
1448,2787	83,7875
1449,2429	84,0641
1450,2072	84,3391
1451,1714	84,6237
1452,1356	84,9575
1453,0999	85,3642
1454,0641	85,8127
1455,0283	86,2414
1455,9926	86,7221
1456,9568	87,5712
1457,9210	88,7891
1458,8853	89,7907
1459,8495	90,3255
1460,8137	90,6206
1461,7780	90,9325
1462,7422	91,38
1463,7064	91,9676
1464,6707	92,6257
1465,6349	93,236
1466,5991	93,7054
1467,5634	94,0487
1468,5276	94,3488
1469,4918	94,6473
1470,4561	94,8917
1471,4203	94,9935
1472,3845	94,9898
1473,3488	95,0915
1474,3130	95,3912
1475,2772	95,7298
1476,2415	95,9666
1477,2057	96,0964
1478,1699	96,1695
1479,1342	96,2309
1480,0984	96,3069
1481,0626	96,4059
1482,0269	96,5198
1482,9911	96,6291
1483,9553	96,7125
1484,9196	96,7471
1485,8838	96,701
1486,8480	96,5456
1487,8123	96,3311
1488,7765	96,2536
1489,7407	96,477
1490,7050	96,8732
1491,6692	97,2128
1492,6334	97,431
1493,5977	97,5704
1494,5619	97,6493
1495,5261	97,6384
1496,4904	97,5328
1497,4546	97,4165
1498,4188	97,3745
1499,3831	97,406
1500,3473	97,4613
1501,3115	97,5976
1502,2758	97,8962
1503,2400	98,3622
1504,2042	98,8407
1505,1685	98,9837
1506,1327	98,4788
1507,0969	97,7113
1508,0612	97,4931
1509,0254	97,6732
1509,9896	97,8106
1510,9539	97,8734
1511,9181	97,9405
1512,8823	98,0174
1513,8466	98,0472
1514,8108	97,9804
1515,7750	97,8334
1516,7393	97,6821
1517,7035	97,5886
1518,6677	97,5369
1519,6320	97,4502
1520,5962	97,2745
1521,5604	97,0394
1522,5247	96,8266
1523,4889	96,6966
1524,4531	96,665
1525,4174	96,7124
1526,3816	96,7961
1527,3458	96,8727
1528,3101	96,9248
1529,2743	96,9583
1530,2385	96,9643
1531,2028	96,8935
1532,1670	96,6935
1533,1312	96,3928
1534,0955	96,1152
1535,0597	95,9847
1536,0239	96,0479
1536,9882	96,2417
1537,9524	96,3391
1538,9166	95,9316
1539,8809	94,7463
1540,8451	93,3972
1541,8093	92,9209
1542,7736	93,1735
1543,7378	93,5236
1544,7020	93,7437
1545,6663	93,831
1546,6305	93,813
1547,5947	93,7133
1548,5590	93,5536
1549,5232	93,3479
1550,4874	93,1014
1551,4517	92,8235
1552,4159	92,5475
1553,3801	92,3345
1554,3444	92,2475
1555,3086	92,3013
1556,2728	92,4209
1557,2371	92,5051
1558,2013	92,6501
1559,1655	92,9349
1560,1298	92,9212
1561,0940	92,4282
1562,0582	91,7682
1563,0225	91,2375
1563,9867	90,9486
1564,9509	90,8803
1565,9152	90,9462
1566,8794	91,0509
1567,8436	91,1425
1568,8079	91,2293
1569,7721	91,3283
1570,7363	91,42
1571,7006	91,4929
1572,6648	91,5704
1573,6290	91,6712
1574,5933	91,7908
1575,5575	91,9475
1576,5217	92,1852
1577,4860	92,4544
1578,4502	92,6405
1579,4144	92,7361
1580,3787	92,8231
1581,3429	92,9603
1582,3071	93,1443
1583,2714	93,3349
1584,2356	93,4951
1585,1998	93,6136
1586,1641	93,7013
1587,1283	93,7738
1588,0925	93,8381
1589,0568	93,8926
1590,0210	93,933
1590,9852	93,9577
1591,9495	93,9696
1592,9137	93,9762
1593,8779	93,9896
1594,8422	94,0205
1595,8064	94,0685
1596,7706	94,117
1597,7349	94,1413
1598,6991	94,1222
1599,6633	94,0561
1600,6276	93,9564
1601,5918	93,8449
1602,5560	93,7373
1603,5203	93,6329
1604,4845	93,5192
1605,4487	93,3855
1606,4130	93,2313
1607,3772	93,0666
1608,3414	92,9048
1609,3057	92,7544
1610,2699	92,6173
1611,2341	92,4992
1612,1984	92,4107
1613,1626	92,3405
1614,1268	92,2286
1615,0911	91,9965
1616,0553	91,6414
1617,0195	91,2589
1617,9838	90,9144
1618,9480	90,6004
1619,9122	90,3095
1620,8765	90,0364
1621,8407	89,7574
1622,8049	89,4588
1623,7692	89,168
1624,7334	88,923
1625,6976	88,7237
1626,6619	88,5366
1627,6261	88,33
1628,5903	88,0994
1629,5546	87,8766
1630,5188	87,7147
1631,4830	87,6503
1632,4473	87,6533
1633,4115	87,5987
1634,3757	87,3286
1635,3400	86,8606
1636,3042	86,4638
1637,2684	86,2683
1638,2327	86,1348
1639,1969	85,9753
1640,1611	85,8227
1641,1254	85,7321
1642,0896	85,7244
1643,0538	85,763
1644,0181	85,7456
1644,9823	85,5532
1645,9465	85,2007
1646,9108	84,9121
1647,8750	84,8767
1648,8392	85,0903
1649,8035	85,4971
1650,7677	86,0245
1651,7319	86,5329
1652,6962	86,9249
1653,6604	87,2346
1654,6246	87,3184
1655,5889	87,0522
1656,5531	86,6513
1657,5173	86,3649
1658,4816	86,287
1659,4458	86,3821
1660,4100	86,564
1661,3743	86,7725
1662,3385	86,9967
1663,3027	87,2235
1664,2670	87,4209
1665,2312	87,5787
1666,1954	87,7043
1667,1597	87,7875
1668,1239	87,8131
1669,0881	87,8222
1670,0524	87,911
1671,0166	88,1223
1671,9808	88,4215
1672,9451	88,7764
1673,9093	89,1675
1674,8735	89,5423
1675,8378	89,8106
1676,8020	89,9078
1677,7662	89,8685
1678,7305	89,815
1679,6947	89,8707
1680,6589	90,0833
1681,6232	90,4085
1682,5874	90,7733
1683,5516	91,1694
1684,5159	91,5631
1685,4801	91,7868
1686,4443	91,7868
1687,4086	91,7119
1688,3728	91,7253
1689,3370	91,8971
1690,3013	92,2121
1691,2655	92,6128
1692,2297	93,0296
1693,1940	93,3896
1694,1582	93,6215
1695,1224	93,6865
1696,0867	93,6401
1697,0509	93,666
1698,0151	93,9746
1698,9794	94,5709
1699,9436	95,1744
1700,9078	95,4738
1701,8721	95,4002
1702,8363	95,1184
1703,8005	94,8595
1704,7648	94,7931
1705,7290	94,9694
1706,6932	95,3103
1707,6575	95,6692
1708,6217	95,9392
1709,5859	96,1102
1710,5502	96,2315
1711,5144	96,3483
1712,4786	96,4641
1713,4429	96,541
1714,4071	96,537
1715,3713	96,5043
1716,3356	96,6731
1717,2998	97,2141
1718,2640	97,8633
1719,2283	98,2522
1720,1925	98,3514
1721,1567	98,3412
1722,1210	98,3797
1723,0852	98,5259
1724,0494	98,7523
1725,0137	98,985
1725,9779	99,1528
1726,9421	99,2263
1727,9064	99,2277
1728,8706	99,2096
1729,8348	99,2187
1730,7991	99,2691
1731,7633	99,3518
1732,7275	99,4769
1733,6918	99,6554
1734,6560	99,7996
1735,6202	99,7936
1736,5845	99,6556
1737,5487	99,4923
1738,5129	99,3747
1739,4772	99,3011
1740,4414	99,2304
1741,4056	99,1272
1742,3699	98,9833
1743,3341	98,8137
1744,2983	98,6415
1745,2626	98,4828
1746,2268	98,3442
1747,1910	98,2402
1748,1553	98,2228
1749,1195	98,3693
1750,0837	98,6816
1751,0480	99,0228
1752,0122	99,2407
1752,9764	99,301
1753,9407	99,2633
1754,9049	99,2001
1755,8691	99,1554
1756,8334	99,1444
1757,7976	99,1629
1758,7618	99,1967
1759,7261	99,2303
1760,6903	99,2553
1761,6545	99,2728
1762,6188	99,2858
1763,5830	99,295
1764,5472	99,3026
1765,5115	99,3127
1766,4757	99,3207
1767,4399	99,3053
1768,4042	99,2346
1769,3684	99,0868
1770,3326	98,8829
1771,2969	98,7067
1772,2611	98,6535
1773,2253	98,7219
1774,1896	98,8149
1775,1538	98,8604
1776,1180	98,8602
1777,0823	98,8406
1778,0465	98,8095
1779,0107	98,7595
1779,9750	98,691
1780,9392	98,6158
1781,9034	98,5349
1782,8677	98,4192
1783,8319	98,2214
1784,7961	97,9127
1785,7604	97,5149
1786,7246	97,0991
1787,6888	96,7499
1788,6531	96,5253
1789,6173	96,4425
1790,5815	96,4993
1791,5458	96,7
1792,5100	97,0231
1793,4742	97,3697
1794,4385	97,6344
1795,4027	97,8052
1796,3669	97,9372
1797,3312	98,0764
1798,2954	98,2316
1799,2596	98,3928
1800,2239	98,5564
1801,1881	98,724
1802,1523	98,8869
1803,1166	99,0258
1804,0808	99,1263
1805,0450	99,1847
1806,0093	99,2039
1806,9735	99,1892
1807,9377	99,1504
1808,9020	99,1079
1809,8662	99,093
1810,8304	99,1308
1811,7947	99,2212
1812,7589	99,3395
1813,7231	99,4565
1814,6874	99,5501
1815,6516	99,6041
1816,6158	99,6086
1817,5801	99,566
1818,5443	99,4944
1819,5085	99,4194
1820,4728	99,3614
1821,4370	99,3249
1822,4012	99,2986
1823,3655	99,2645
1824,3297	99,209
1825,2939	99,1279
1826,2582	99,0241
1827,2224	98,9091
1828,1866	98,8076
1829,1509	98,7574
1830,1151	98,7835
1831,0793	98,8649
1832,0436	98,9491
1833,0078	99,0028
1833,9720	99,0272
1834,9363	99,0333
1835,9005	99,0259
1836,8647	99,008
1837,8290	98,9883
1838,7932	98,9821
1839,7574	99,0029
1840,7217	99,0475
1841,6859	99,0866
1842,6501	99,0814
1843,6144	99,0253
1844,5786	98,9556
1845,5428	98,9047
1846,5071	98,8712
1847,4713	98,8494
1848,4355	98,8449
1849,3998	98,8605
1850,3640	98,8862
1851,3282	98,906
1852,2925	98,9096
1853,2567	98,8969
1854,2209	98,8751
1855,1852	98,8532
1856,1494	98,8401
1857,1136	98,8424
1858,0779	98,8635
1859,0421	98,8995
1860,0063	98,9355
1860,9706	98,9495
1861,9348	98,922
1862,8990	98,8455
1863,8633	98,7246
1864,8275	98,5667
1865,7917	98,3796
1866,7560	98,1894
1867,7202	98,0633
1868,6844	98,0764
1869,6487	98,222
1870,6129	98,4041
1871,5771	98,5356
1872,5414	98,5951
1873,5056	98,6013
1874,4698	98,5774
1875,4341	98,5412
1876,3983	98,5073
1877,3625	98,4859
1878,3268	98,4787
1879,2910	98,4792
1880,2552	98,4786
1881,2195	98,4725
1882,1837	98,4642
1883,1479	98,4604
1884,1122	98,4641
1885,0764	98,4685
1886,0406	98,4583
1887,0049	98,4176
1887,9691	98,3422
1888,9333	98,2467
1889,8976	98,1553
1890,8618	98,0835
1891,8260	98,0323
1892,7903	97,9972
1893,7545	97,9781
1894,7188	97,9808
1895,6830	98,0097
1896,6472	98,0588
1897,6115	98,1079
1898,5757	98,1327
1899,5399	98,1179
1900,5042	98,0642
1901,4684	97,9864
1902,4326	97,9039
1903,3969	97,8305
1904,3611	97,7694
1905,3253	97,7171
1906,2896	97,6721
1907,2538	97,6404
1908,2180	97,6328
1909,1823	97,654
1910,1465	97,6922
1911,1107	97,7236
1912,0750	97,7303
1913,0392	97,714
1914,0034	97,6904
1914,9677	97,6882
1915,9319	97,713
1916,8961	97,7407
1917,8604	97,756
1918,8246	97,7458
1919,7888	97,712
1920,7531	97,6751
1921,7173	97,663
1922,6815	97,6933
1923,6458	97,7604
1924,6100	97,8392
1925,5742	97,9023
1926,5385	97,9387
1927,5027	97,9544
1928,4669	97,9606
1929,4312	97,962
1930,3954	97,9556
1931,3596	97,938
1932,3239	97,9147
1933,2881	97,902
1934,2523	97,9181
1935,2166	97,9698
1936,1808	98,0455
1937,1450	98,1202
1938,1093	98,1689
1939,0735	98,1747
1940,0377	98,1298
1941,0020	98,0348
1941,9662	97,901
1942,9304	97,7509
1943,8947	97,6153
1944,8589	97,5257
1945,8231	97,5069
1946,7874	97,5669
1947,7516	97,6889
1948,7158	97,8332
1949,6801	97,9537
1950,6443	98,0207
1951,6085	98,035
1952,5728	98,0234
1953,5370	98,0192
1954,5012	98,0425
1955,4655	98,0934
1956,4297	98,1594
1957,3939	98,2268
1958,3582	98,2862
1959,3224	98,3281
1960,2866	98,3343
1961,2509	98,2773
1962,2151	98,1339
1963,1793	97,9039
1964,1436	97,6234
1965,1078	97,3625
1966,0720	97,2041
1967,0363	97,2037
1968,0005	97,3529
1968,9647	97,5776
1969,9290	97,7805
1970,8932	97,8921
1971,8574	97,8933
1972,8217	97,8068
1973,7859	97,6692
1974,7501	97,5059
1975,7144	97,3192
1976,6786	97,1015
1977,6428	96,8623
1978,6071	96,6413
1979,5713	96,4922
1980,5355	96,4494
1981,4998	96,5076
1982,4640	96,6256
1983,4282	96,7485
1984,3925	96,8336
1985,3567	96,8687
1986,3209	96,8742
1987,2852	96,8879
1988,2494	96,9426
1989,2136	97,05
1990,1779	97,1989
1991,1421	97,3655
1992,1063	97,5272
1993,0706	97,6708
1994,0348	97,7911
1994,9990	97,8847
1995,9633	97,9445
1996,9275	97,9618
1997,8917	97,9347
1998,8560	97,8796
1999,8202	97,8342
2000,7844	97,8468
2001,7487	97,9572
2002,7129	98,1784
2003,6771	98,4839
2004,6414	98,8048
2005,6056	99,0427
2006,5698	99,1023
2007,5341	98,9403
2008,4983	98,599
2009,4625	98,1963
2010,4268	97,8723
2011,3910	97,7265
2012,3552	97,7796
2013,3195	97,9701
2014,2837	98,1785
2015,2479	98,2724
2016,2122	98,166
2017,1764	97,8689
2018,1406	97,487
2019,1049	97,1668
2020,0691	97,02
2021,0333	97,0801
2021,9976	97,2992
2022,9618	97,5758
2023,9260	97,7975
2024,8903	97,8842
2025,8545	97,814
2026,8187	97,6196
2027,7830	97,3629
2028,7472	97,1057
2029,7114	96,8925
2030,6757	96,7449
2031,6399	96,6642
2032,6041	96,6347
2033,5684	96,6285
2034,5326	96,6143
2035,4968	96,57
2036,4611	96,4942
2037,4253	96,4068
2038,3895	96,343
2039,3538	96,341
2040,3180	96,429
2041,2822	96,6126
2042,2465	96,8649
2043,2107	97,1264
2044,1749	97,3182
2045,1392	97,3692
2046,1034	97,2515
2047,0676	97,0085
2048,0320	96,7518
2048,9961	96,6137
2049,9604	96,6796
2050,9246	96,9469
2051,8889	97,3308
2052,8530	97,7035
2053,8174	97,9445
2054,7815	97,986
2055,7458	97,8351
2056,7100	97,5664
2057,6743	97,2835
2058,6384	97,0735
2059,6028	96,9775
2060,5669	96,987
2061,5313	97,0603
2062,4954	97,1468
2063,4597	97,2075
2064,4238	97,2252
2065,3882	97,2029
2066,3523	97,1547
2067,3167	97,0971
2068,2808	97,0449
2069,2451	97,0105
2070,2092	97,0028
2071,1736	97,0237
2072,1377	97,0654
2073,1021	97,1104
2074,0662	97,1383
2075,0305	97,1341
2075,9946	97,0939
2076,9590	97,0254
2077,9231	96,9449
2078,8875	96,8736
2079,8516	96,8345
2080,8159	96,8477
2081,7800	96,9218
2082,7444	97,046
2083,7085	97,1888
2084,6729	97,3088
2085,6370	97,3747
2086,6013	97,3814
2087,5654	97,3526
2088,5298	97,3235
2089,4939	97,317
2090,4583	97,3271
2091,4224	97,3247
2092,3867	97,2796
2093,3508	97,1863
2094,3152	97,0728
2095,2793	96,9874
2096,2437	96,9695
2097,2078	97,0243
2098,1721	97,1187
2099,1362	97,2006
2100,1006	97,2283
2101,0647	97,1896
2102,0291	97,1034
2102,9932	97,0052
2103,9575	96,9283
2104,9216	96,8928
2105,8860	96,9031
2106,8501	96,953
2107,8145	97,0295
2108,7786	97,115
2109,7429	97,188
2110,7070	97,2277
2111,6714	97,2227
2112,6355	97,1779
2113,5999	97,1159
2114,5640	97,0679
2115,5283	97,06
2116,4924	97,1021
2117,4568	97,1852
2118,4209	97,2897
2119,3853	97,3964
2120,3494	97,4955
2121,3137	97,586
2122,2778	97,6697
2123,2422	97,7427
2124,2063	97,7941
2125,1707	97,8127
2126,1348	97,7995
2127,0991	97,7748
2128,0632	97,7739
2129,0276	97,8288
2129,9917	97,9453
2130,9561	98,0909
2131,9202	98,2028
2132,8845	98,2177
2133,8486	98,1101
2134,8130	97,9132
2135,7771	97,7042
2136,7415	97,5582
2137,7056	97,5036
2138,6699	97,5095
2139,6340	97,5128
2140,5984	97,4619
2141,5625	97,3499
2142,5269	97,2154
2143,4910	97,1155
2144,4553	97,0913
2145,4194	97,145
2146,3838	97,2406
2147,3479	97,323
2148,3123	97,3429
2149,2764	97,276
2150,2407	97,1306
2151,2048	96,9432
2152,1692	96,7668
2153,1333	96,6515
2154,0977	96,6253
2155,0618	96,6745
2156,0261	96,7336
2156,9902	96,6949
2157,9546	96,4559
2158,9187	95,9951
2159,8831	95,4136
2160,8472	94,8831
2161,8115	94,5425
2162,7756	94,4358
2163,7400	94,5214
2164,7041	94,7179
2165,6685	94,9533
2166,6326	95,1955
2167,5969	95,4519
2168,5610	95,7423
2169,5254	96,0666
2170,4895	96,3896
2171,4539	96,6521
2172,4180	96,7992
2173,3823	96,8092
2174,3464	96,705
2175,3108	96,5425
2176,2749	96,3833
2177,2393	96,2686
2178,2034	96,2077
2179,1677	96,1829
2180,1318	96,1645
2181,0962	96,1286
2182,0603	96,0703
2183,0247	96,0056
2183,9888	95,9613
2184,9531	95,9587
2185,9172	96,0014
2186,8816	96,0758
2187,8457	96,1618
2188,8101	96,2452
2189,7742	96,323
2190,7385	96,3961
2191,7026	96,4594
2192,6670	96,4969
2193,6311	96,4908
2194,5955	96,4367
2195,5596	96,3546
2196,5239	96,2829
2197,4880	96,2588
2198,4524	96,2959
2199,4165	96,3742
2200,3809	96,4496
2201,3450	96,4781
2202,3093	96,4409
2203,2734	96,3553
2204,2378	96,2673
2205,2019	96,2291
2206,1663	96,2765
2207,1304	96,4139
2208,0947	96,6131
2209,0588	96,8229
2210,0232	96,9881
2210,9873	97,0682
2211,9517	97,0524
2212,9158	96,9628
2213,8801	96,8448
2214,8442	96,7481
2215,8086	96,7065
2216,7727	96,7259
2217,7371	96,7856
2218,7012	96,8521
2219,6655	96,8971
2220,6296	96,9098
2221,5940	96,895
2222,5581	96,8638
2223,5225	96,8223
2224,4866	96,7696
2225,4509	96,7026
2226,4150	96,6237
2227,3794	96,5446
2228,3435	96,482
2229,3079	96,4507
2230,2720	96,4577
2231,2363	96,5013
2232,2004	96,5714
2233,1648	96,6501
2234,1289	96,7119
2235,0933	96,7285
2236,0574	96,6793
2237,0217	96,5652
2237,9858	96,4142
2238,9502	96,2727
2239,9143	96,1837
2240,8787	96,1646
2241,8428	96,1971
2242,8071	96,2365
2243,7712	96,2337
2244,7356	96,1585
2245,6997	96,0105
2246,6641	95,8132
2247,6282	95,5994
2248,5925	95,3961
2249,5566	95,2156
2250,5210	95,0553
2251,4851	94,9015
2252,4495	94,7371
2253,4136	94,5495
2254,3779	94,3362
2255,3420	94,1059
2256,3064	93,8716
2257,2705	93,6425
2258,2349	93,4176
2259,1990	93,1884
2260,1633	92,9473
2261,1274	92,6956
2262,0918	92,4444
2263,0559	92,2092
2264,0203	92,0011
2264,9844	91,8238
2265,9487	91,6775
2266,9128	91,5649
2267,8772	91,4929
2268,8413	91,4663
2269,8057	91,4787
2270,7698	91,5079
2271,7341	91,5227
2272,6982	91,4987
2273,6626	91,4358
2274,6267	91,3645
2275,5911	91,338
2276,5552	91,4106
2277,5195	91,6129
2278,4836	91,9335
2279,4480	92,3148
2280,4121	92,6651
2281,3765	92,8818
2282,3406	92,8782
2283,3049	92,6028
2284,2690	92,0487
2285,2334	91,2503
2286,1975	90,2711
2287,1619	89,1828
2288,1260	88,0452
2289,0903	86,8923
2290,0544	85,7335
2291,0188	84,5674
2291,9829	83,3995
2292,9473	82,2501
2293,9114	81,146
2294,8757	80,1029
2295,8398	79,1121
2296,8042	78,1444
2297,7683	77,1707
2298,7327	76,1819
2299,6968	75,1918
2300,6611	74,2144
2301,6252	73,2296
2302,5896	72,1651
2303,5537	70,9125
2304,5181	69,3744
2305,4822	67,52
2306,4465	65,4169
2307,4106	63,2209
2308,3750	61,1247
2309,3391	59,2884
2310,3035	57,7834
2311,2676	56,5718
2312,2319	55,527
2313,1960	54,4852
2314,1604	53,3042
2315,1245	51,9054
2316,0889	50,2828
2317,0530	48,4848
2318,0173	46,5797
2318,9814	44,6233
2319,9458	42,6428
2320,9099	40,6456
2321,8743	38,6455
2322,8384	36,6848
2323,8027	34,8307
2324,7668	33,1521
2325,7312	31,6995
2326,6953	30,4975
2327,6597	29,5449
2328,6238	28,812
2329,5881	28,2387
2330,5522	27,7443
2331,5166	27,2545
2332,4807	26,7312
2333,4451	26,1799
2334,4092	25,632
2335,3735	25,1188
2336,3376	24,6541
2337,3020	24,2264
2338,2661	23,7994
2339,2305	23,3325
2340,1946	22,84
2341,1589	22,4866
2342,1230	22,6528
2343,0874	23,8276
2344,0515	26,2395
2345,0159	29,5133
2345,9800	32,8264
2346,9443	35,4145
2347,9084	36,852
2348,8728	36,9956
2349,8369	35,845
2350,8013	33,4902
2351,7654	30,1627
2352,7297	26,3183
2353,6938	22,5997
2354,6582	19,5663
2355,6223	17,3853
2356,5867	15,8465
2357,5508	14,6811
2358,5151	13,8039
2359,4792	13,2824
2360,4436	13,1665
2361,4077	13,4026
2362,3721	13,8958
2363,3362	14,6072
2364,3005	15,572
2365,2646	16,8475
2366,2290	18,4642
2367,1931	20,4253
2368,1575	22,7338
2369,1216	25,4051
2370,0859	28,4549
2371,0500	31,8799
2372,0144	35,65
2372,9785	39,7115
2373,9429	43,9921
2374,9070	48,4073
2375,8713	52,8685
2376,8354	57,2962
2377,7998	61,6336
2378,7639	65,8518
2379,7283	69,9445
2380,6924	73,9111
2381,6567	77,7373
2382,6208	81,3807
2383,5852	84,7678
2384,5493	87,8061
2385,5137	90,4066
2386,4778	92,511
2387,4421	94,111
2388,4063	95,2508
2389,3706	96,0128
2390,3347	96,4927
2391,2991	96,7777
2392,2632	96,9346
2393,2275	97,0111
2394,1917	97,0414
2395,1560	97,0508
2396,1201	97,0549
2397,0845	97,0576
2398,0486	97,053
2399,0129	97,0322
2399,9771	96,9916
2400,9414	96,9375
2401,9055	96,8835
2402,8699	96,8432
2403,8340	96,8232
2404,7983	96,8211
2405,7625	96,8285
2406,7268	96,835
2407,6909	96,8315
2408,6553	96,8107
2409,6194	96,7675
2410,5837	96,6999
2411,5479	96,6122
2412,5122	96,5145
2413,4763	96,4201
2414,4407	96,3392
2415,4048	96,273
2416,3691	96,2124
2417,3333	96,1419
2418,2976	96,0476
2419,2617	95,9249
2420,2261	95,7805
2421,1902	95,6297
2422,1545	95,489
2423,1187	95,3694
2424,0830	95,2724
2425,0471	95,1915
2426,0115	95,1182
2426,9756	95,047
2427,9399	94,9795
2428,9041	94,9229
2429,8684	94,8854
2430,8325	94,8711
2431,7969	94,8778
2432,7610	94,8982
2433,7253	94,9241
2434,6895	94,95
2435,6538	94,975
2436,6179	95,0001
2437,5823	95,026
2438,5464	95,0512
2439,5107	95,0739
2440,4749	95,0948
2441,4392	95,1189
2442,4033	95,1536
2443,3677	95,2039
2444,3318	95,2685
2445,2961	95,3389
2446,2603	95,4047
2447,2246	95,4597
2448,1887	95,5068
2449,1531	95,5563
2450,1172	95,6198
2451,0815	95,7027
2452,0457	95,7997
2453,0100	95,8981
2453,9741	95,9839
2454,9385	96,0503
2455,9026	96,1009
2456,8669	96,1477
2457,8311	96,2042
2458,7954	96,2782
2459,7595	96,3686
2460,7239	96,467
2461,6880	96,5632
2462,6523	96,6511
2463,6165	96,7305
2464,5808	96,8051
2465,5449	96,8779
2466,5093	96,9487
2467,4734	97,0141
2468,4377	97,0697
2469,4019	97,1121
2470,3662	97,1391
2471,3303	97,1492
2472,2947	97,1434
2473,2588	97,1278
2474,2231	97,1153
2475,1873	97,122
2476,1516	97,1591
2477,1157	97,2246
2478,0801	97,3022
2479,0442	97,3689
2480,0085	97,4073
2480,9727	97,4146
2481,9370	97,4023
2482,9011	97,3869
2483,8655	97,3804
2484,8296	97,3854
2485,7939	97,3984
2486,7581	97,416
2487,7224	97,4395
2488,6865	97,4731
2489,6509	97,5206
2490,6150	97,5819
2491,5793	97,6526
2492,5435	97,7261
2493,5078	97,7956
2494,4719	97,8553
2495,4363	97,9019
2496,4004	97,9358
2497,3647	97,9614
2498,3289	97,9854
2499,2932	98,0126
2500,2573	98,0426
2501,2217	98,0692
2502,1858	98,0845
2503,1501	98,0846
2504,1143	98,0732
2505,0786	98,0611
2506,0427	98,0617
2507,0071	98,0854
2507,9712	98,1349
2508,9355	98,2048
2509,8997	98,2839
2510,8640	98,36
2511,8281	98,4256
2512,7925	98,4807
2513,7566	98,5315
2514,7209	98,5843
2515,6851	98,6385
2516,6494	98,685
2517,6135	98,7119
2518,5779	98,7146
2519,5420	98,7037
2520,5063	98,7028
2521,4705	98,7356
2522,4348	98,8113
2523,3989	98,9171
2524,3633	99,023
2525,3274	99,0975
2526,2917	99,1229
2527,2559	99,1032
2528,2202	99,0598
2529,1843	99,0205
2530,1487	99,0073
2531,1128	99,0294
2532,0771	99,0816
2533,0413	99,148
2534,0056	99,2092
2534,9697	99,2493
2535,9341	99,2631
2536,8982	99,2573
2537,8625	99,2471
2538,8267	99,2478
2539,7910	99,2665
2540,7551	99,2982
2541,7195	99,323
2542,6836	99,3285
2543,6479	99,3103
2544,6121	99,2705
2545,5764	99,2204
2546,5405	99,1762
2547,5049	99,1526
2548,4690	99,1569
2549,4333	99,1852
2550,3975	99,223
2551,3618	99,2504
2552,3259	99,2512
2553,2903	99,2218
2554,2544	99,1733
2555,2188	99,1264
2556,1829	99,099
2557,1472	99,0964
2558,1113	99,1094
2559,0757	99,1217
2560,0398	99,1212
2561,0042	99,1076
2561,9683	99,0904
2562,9326	99,0805
2563,8967	99,0814
2564,8611	99,0873
2565,8252	99,0883
2566,7896	99,0784
2567,7537	99,0595
2568,7180	99,0394
2569,6821	99,0258
2570,6465	99,0218
2571,6106	99,0252
2572,5750	99,0308
2573,5391	99,0334
2574,5034	99,029
2575,4675	99,0142
2576,4319	98,9887
2577,3960	98,9561
2578,3604	98,9258
2579,3245	98,9095
2580,2888	98,9145
2581,2529	98,9379
2582,2173	98,9665
2583,1814	98,9833
2584,1458	98,9777
2585,1099	98,9515
2586,0742	98,917
2587,0383	98,887
2588,0027	98,867
2588,9668	98,8526
2589,9312	98,8348
2590,8953	98,8084
2591,8596	98,7758
2592,8237	98,7439
2593,7881	98,7178
2594,7522	98,6963
2595,7166	98,6736
2596,6807	98,645
2597,6450	98,6115
2598,6091	98,5796
2599,5735	98,5559
2600,5376	98,5417
2601,5020	98,5317
2602,4661	98,5183
2603,4304	98,4967
2604,3945	98,4685
2605,3589	98,4396
2606,3230	98,416
2607,2874	98,4004
2608,2515	98,3912
2609,2158	98,3844
2610,1799	98,376
2611,1443	98,3635
2612,1084	98,3466
2613,0728	98,326
2614,0369	98,3037
2615,0012	98,2811
2615,9653	98,2586
2616,9297	98,2346
2617,8938	98,2072
2618,8582	98,1763
2619,8223	98,1458
2620,7866	98,1228
2621,7507	98,1146
2622,7151	98,1237
2623,6792	98,1451
2624,6436	98,1665
2625,6077	98,1739
2626,5720	98,1572
2627,5361	98,1149
2628,5005	98,0544
2629,4646	97,9886
2630,4290	97,9311
2631,3931	97,8907
2632,3574	97,8694
2633,3215	97,8622
2634,2859	97,8601
2635,2500	97,8541
2636,2144	97,8392
2637,1785	97,8154
2638,1428	97,7869
2639,1069	97,7589
2640,0713	97,7346
2641,0354	97,7135
2641,9998	97,693
2642,9639	97,6706
2643,9282	97,6462
2644,8923	97,6227
2645,8567	97,6031
2646,8208	97,5884
2647,7852	97,5754
2648,7493	97,559
2649,7136	97,5347
2650,6777	97,5029
2651,6421	97,4693
2652,6062	97,4415
2653,5706	97,4249
2654,5347	97,4188
2655,4990	97,4173
2656,4631	97,4133
2657,4275	97,4037
2658,3916	97,3916
2659,3560	97,3844
2660,3201	97,3889
2661,2844	97,4065
2662,2485	97,4323
2663,2129	97,4572
2664,1770	97,4726
2665,1414	97,4731
2666,1055	97,458
2667,0698	97,4301
2668,0339	97,3937
2668,9983	97,3536
2669,9624	97,3149
2670,9268	97,2828
2671,8909	97,2612
2672,8552	97,2518
2673,8193	97,2523
2674,7837	97,2567
2675,7478	97,2569
2676,7122	97,2458
2677,6763	97,2197
2678,6406	97,1797
2679,6047	97,1309
2680,5691	97,0798
2681,5332	97,0312
2682,4976	96,9881
2683,4617	96,9506
2684,4260	96,9181
2685,3901	96,8905
2686,3545	96,8679
2687,3186	96,8502
2688,2830	96,8357
2689,2471	96,8208
2690,2114	96,8018
2691,1755	96,776
2692,1399	96,7436
2693,1040	96,707
2694,0684	96,6694
2695,0325	96,6331
2695,9968	96,599
2696,9609	96,5665
2697,9253	96,5347
2698,8894	96,5032
2699,8538	96,4718
2700,8179	96,4402
2701,7822	96,4075
2702,7463	96,3727
2703,7107	96,3352
2704,6748	96,2953
2705,6392	96,254
2706,6033	96,2124
2707,5676	96,1711
2708,5317	96,1299
2709,4961	96,0882
2710,4602	96,0453
2711,4246	96,0007
2712,3887	95,9545
2713,3530	95,9071
2714,3171	95,8597
2715,2815	95,8138
2716,2456	95,7707
2717,2100	95,7298
2718,1741	95,6892
2719,1384	95,6455
2720,1025	95,5967
2721,0669	95,5439
2722,0310	95,4911
2722,9954	95,4433
2723,9595	95,4034
2724,9238	95,37
2725,8879	95,338
2726,8523	95,3013
2727,8164	95,2561
2728,7808	95,2021
2729,7449	95,1422
2730,7092	95,08
2731,6733	95,0176
2732,6377	94,9553
2733,6018	94,8921
2734,5662	94,8274
2735,5303	94,7613
2736,4946	94,6949
2737,4587	94,6295
2738,4231	94,5657
2739,3872	94,5033
2740,3516	94,4414
2741,3157	94,3787
2742,2800	94,3144
2743,2441	94,2479
2744,2085	94,18
2745,1726	94,1121
2746,1370	94,0461
2747,1011	93,9832
2748,0654	93,9242
2749,0295	93,8688
2749,9939	93,8157
2750,9580	93,7633
2751,9224	93,7102
2752,8865	93,6549
2753,8508	93,5966
2754,8149	93,5358
2755,7793	93,4745
2756,7434	93,4157
2757,7078	93,3616
2758,6719	93,313
2759,6362	93,2678
2760,6003	93,2228
2761,5647	93,1752
2762,5288	93,125
2763,4932	93,0749
2764,4573	93,0296
2765,4216	92,9928
2766,3857	92,9656
2767,3501	92,9461
2768,3142	92,9301
2769,2786	92,9127
2770,2427	92,8896
2771,2070	92,8591
2772,1711	92,8219
2773,1355	92,782
2774,0996	92,7449
2775,0640	92,7149
2776,0281	92,6924
2776,9924	92,6725
2777,9565	92,6467
2778,9209	92,6071
2779,8850	92,5512
2780,8494	92,4842
2781,8135	92,4165
2782,7778	92,3588
2783,7419	92,3165
2784,7063	92,288
2785,6704	92,2658
2786,6348	92,2413
2787,5989	92,208
2788,5632	92,1641
2789,5273	92,1116
2790,4917	92,0545
2791,4558	91,9965
2792,4202	91,9402
2793,3843	91,8857
2794,3486	91,8318
2795,3127	91,776
2796,2771	91,7163
2797,2412	91,652
2798,2056	91,5847
2799,1697	91,5179
2800,1340	91,456
2801,0981	91,4021
2802,0625	91,357
2803,0266	91,319
2803,9910	91,2846
2804,9551	91,2499
2805,9194	91,2123
2806,8835	91,1699
2807,8479	91,1215
2808,8120	91,066
2809,7764	91,0029
2810,7405	90,9331
2811,7048	90,8602
2812,6689	90,7895
2813,6333	90,7258
2814,5974	90,6708
2815,5618	90,6218
2816,5259	90,5729
2817,4902	90,518
2818,4543	90,4539
2819,4187	90,3811
2820,3828	90,3034
2821,3472	90,2251
2822,3113	90,1499
2823,2756	90,0808
2824,2397	90,0201
2825,2041	89,9688
2826,1682	89,9254
2827,1326	89,8849
2828,0967	89,8393
2829,0610	89,7799
2830,0251	89,7014
2830,9895	89,6039
2831,9536	89,4935
2832,9180	89,3796
2833,8821	89,2709
2834,8464	89,1722
2835,8105	89,0833
2836,7749	89,001
2837,7390	88,921
2838,7034	88,8405
2839,6675	88,7588
2840,6318	88,6764
2841,5959	88,5932
2842,5603	88,5081
2843,5244	88,4185
2844,4888	88,322
2845,4529	88,2169
2846,4172	88,1026
2847,3813	87,9801
2848,3457	87,8504
2849,3098	87,7149
2850,2742	87,5742
2851,2383	87,4287
2852,2026	87,2785
2853,1667	87,1237
2854,1311	86,9647
2855,0952	86,8019
2856,0596	86,6351
2857,0237	86,4634
2857,9880	86,2852
2858,9521	86,099
2859,9165	85,9044
2860,8806	85,7029
2861,8450	85,4968
2862,8091	85,2892
2863,7734	85,0822
2864,7375	84,8777
2865,7019	84,6784
2866,6660	84,4889
2867,6304	84,3148
2868,5945	84,1611
2869,5588	84,0291
2870,5229	83,914
2871,4873	83,8054
2872,4514	83,6909
2873,4158	83,5609
2874,3799	83,4121
2875,3442	83,2479
2876,3083	83,0748
2877,2727	82,898
2878,2368	82,7174
2879,2012	82,5299
2880,1653	82,333
2881,1296	82,1308
2882,0938	81,9347
2883,0581	81,7608
2884,0222	81,6225
2884,9866	81,5243
2885,9507	81,4595
2886,9150	81,4118
2887,8792	81,3616
2888,8435	81,293
2889,8076	81,2005
2890,7720	81,0909
2891,7361	80,9798
2892,7004	80,8811
2893,6646	80,7944
2894,6289	80,6996
2895,5930	80,5637
2896,5574	80,3613
2897,5215	80,0956
2898,4858	79,8077
2899,4500	79,563
2900,4143	79,4222
2901,3784	79,4112
2902,3428	79,5092
2903,3069	79,6622
2904,2712	79,8109
2905,2354	79,9164
2906,1997	79,9692
2907,1638	79,9822
2908,1282	79,9762
2909,0923	79,97
2910,0566	79,9774
2911,0208	80,0085
2911,9851	80,0685
2912,9492	80,1544
2913,9136	80,2521
2914,8777	80,3394
2915,8420	80,3941
2916,8062	80,4049
2917,7705	80,3757
2918,7346	80,3224
2919,6990	80,2644
2920,6631	80,2164
2921,6274	80,1848
2922,5916	80,1684
2923,5559	80,1609
2924,5200	80,1547
2925,4844	80,1435
2926,4485	80,1248
2927,4128	80,1001
2928,3770	80,0729
2929,3413	80,0461
2930,3054	80,019
2931,2698	79,9875
2932,2339	79,9472
2933,1982	79,8963
2934,1624	79,837
2935,1267	79,7738
2936,0908	79,7102
2937,0552	79,6448
2938,0193	79,572
2938,9836	79,4856
2939,9478	79,3836
2940,9121	79,2719
2941,8762	79,1627
2942,8406	79,0687
2943,8047	78,9962
2944,7690	78,9404
2945,7332	78,8877
2946,6975	78,8217
2947,6616	78,7312
2948,6260	78,6137
2949,5901	78,4738
2950,5544	78,3178
2951,5186	78,1499
2952,4829	77,9704
2953,4470	77,7789
2954,4114	77,5775
2955,3755	77,3716
2956,3398	77,1684
2957,3040	76,9739
2958,2683	76,79
2959,2324	76,6136
2960,1968	76,4377
2961,1609	76,2524
2962,1252	76,0472
2963,0894	75,8146
2964,0537	75,5519
2965,0178	75,264
2965,9822	74,9618
2966,9463	74,66
2967,9106	74,3744
2968,8748	74,1189
2969,8391	73,905
2970,8032	73,7397
2971,7676	73,6242
2972,7317	73,5519
2973,6960	73,5093
2974,6602	73,4808
2975,6245	73,4548
2976,5886	73,4284
2977,5530	73,4067
2978,5171	73,3991
2979,4814	73,4111
2980,4456	73,4386
2981,4099	73,4658
2982,3740	73,4686
2983,3384	73,4246
2984,3025	73,3251
2985,2668	73,1867
2986,2310	73,0532
2987,1953	72,985
2988,1594	73,0346
2989,1238	73,2223
2990,0879	73,5225
2991,0522	73,8731
2992,0164	74,2015
2992,9807	74,4551
2993,9448	74,62
2994,9092	74,719
2995,8733	74,7932
2996,8376	74,8789
2997,8018	74,993
2998,7661	75,1327
2999,7302	75,2853
3000,6946	75,4386
3001,6587	75,5867
3002,6230	75,7301
3003,5872	75,8718
3004,5515	76,0144
3005,5156	76,1594
3006,4800	76,3068
3007,4441	76,4556
3008,4084	76,6034
3009,3726	76,7466
3010,3369	76,8816
3011,3010	77,0069
3012,2654	77,1236
3013,2295	77,2359
3014,1938	77,3488
3015,1580	77,4657
3016,1223	77,5871
3017,0864	77,7105
3018,0508	77,8317
3019,0149	77,9467
3019,9792	78,0535
3020,9434	78,1524
3021,9077	78,2448
3022,8718	78,3313
3023,8362	78,4105
3024,8003	78,4785
3025,7646	78,5306
3026,7288	78,5642
3027,6931	78,5801
3028,6572	78,5833
3029,6216	78,582
3030,5857	78,5858
3031,5500	78,6031
3032,5142	78,6383
3033,4785	78,6897
3034,4426	78,7496
3035,4070	78,8064
3036,3711	78,8484
3037,3354	78,8687
3038,2996	78,8673
3039,2639	78,851
3040,2280	78,8294
3041,1924	78,809
3042,1565	78,7899
3043,1208	78,7668
3044,0850	78,7335
3045,0493	78,6883
3046,0134	78,6358
3046,9778	78,5842
3047,9419	78,54
3048,9063	78,5039
3049,8704	78,4703
3050,8347	78,4315
3051,7988	78,3827
3052,7632	78,3249
3053,7273	78,2637
3054,6917	78,2061
3055,6558	78,1565
3056,6201	78,1151
3057,5842	78,0779
3058,5486	78,0389
3059,5127	77,9921
3060,4771	77,9329
3061,4412	77,8596
3062,4055	77,7745
3063,3696	77,6847
3064,3340	77,6011
3065,2981	77,5338
3066,2625	77,4869
3067,2266	77,4556
3068,1909	77,4275
3069,1550	77,3889
3070,1194	77,3317
3071,0835	77,257
3072,0479	77,1735
3073,0120	77,0913
3073,9763	77,0163
3074,9404	76,9473
3075,9048	76,8786
3076,8689	76,8055
3077,8333	76,7279
3078,7974	76,6506
3079,7617	76,5795
3080,7258	76,5173
3081,6902	76,4625
3082,6543	76,411
3083,6187	76,3592
3084,5828	76,3064
3085,5471	76,2528
3086,5112	76,1987
3087,4756	76,1434
3088,4397	76,0853
3089,4041	76,0233
3090,3682	75,9581
3091,3325	75,8911
3092,2966	75,8244
3093,2610	75,7603
3094,2251	75,7005
3095,1895	75,6454
3096,1536	75,5932
3097,1179	75,5393
3098,0820	75,4782
3099,0464	75,4073
3100,0105	75,3293
3100,9749	75,2521
3101,9390	75,1842
3102,9033	75,1296
3103,8674	75,0845
3104,8318	75,0399
3105,7959	74,9878
3106,7603	74,9256
3107,7244	74,8575
3108,6887	74,7908
3109,6528	74,7304
3110,6172	74,6753
3111,5813	74,6202
3112,5457	74,5587
3113,5098	74,4881
3114,4741	74,4104
3115,4382	74,3314
3116,4026	74,2575
3117,3667	74,1926
3118,3311	74,1368
3119,2952	74,0866
3120,2595	74,0374
3121,2236	73,9865
3122,1880	73,9341
3123,1521	73,8841
3124,1165	73,8411
3125,0806	73,8069
3126,0449	73,7776
3127,0090	73,7445
3127,9734	73,6985
3128,9375	73,6352
3129,9019	73,558
3130,8660	73,4774
3131,8303	73,4064
3132,7944	73,3541
3133,7588	73,3216
3134,7229	73,3021
3135,6873	73,2851
3136,6514	73,2615
3137,6157	73,2265
3138,5798	73,1797
3139,5442	73,1234
3140,5083	73,0607
3141,4727	72,995
3142,4368	72,9291
3143,4011	72,8654
3144,3652	72,8048
3145,3296	72,7465
3146,2937	72,6887
3147,2581	72,6309
3148,2222	72,5746
3149,1865	72,5233
3150,1506	72,4793
3151,1150	72,4421
3152,0791	72,4077
3153,0435	72,3713
3154,0076	72,3311
3154,9719	72,2887
3155,9360	72,247
3156,9004	72,2067
3157,8645	72,1654
3158,8289	72,1193
3159,7930	72,0678
3160,7573	72,0151
3161,7214	71,9679
3162,6858	71,9306
3163,6499	71,9011
3164,6143	71,8715
3165,5784	71,8322
3166,5427	71,7781
3167,5068	71,7109
3168,4712	71,6387
3169,4353	71,5748
3170,3997	71,5214
3171,3638	71,4844
3172,3281	71,4605
3173,2922	71,4422
3174,2566	71,4201
3175,2207	71,3872
3176,1851	71,342
3177,1492	71,289
3178,1135	71,236
3179,0776	71,1886
3180,0420	71,1472
3181,0061	71,1077
3181,9705	71,0656
3182,9346	71,0204
3183,8989	70,9762
3184,8630	70,9386
3185,8274	70,9096
3186,7915	70,8858
3187,7559	70,8597
3188,7200	70,8252
3189,6843	70,7813
3190,6484	70,7318
3191,6128	70,6832
3192,5769	70,6403
3193,5413	70,6051
3194,5054	70,5771
3195,4697	70,5556
3196,4338	70,5406
3197,3982	70,5318
3198,3623	70,5266
3199,3267	70,5193
3200,2908	70,5024
3201,2551	70,471
3202,2192	70,4261
3203,1836	70,3748
3204,1477	70,3274
3205,1121	70,2917
3206,0762	70,2681
3207,0405	70,2501
3208,0046	70,2283
3208,9690	70,1969
3209,9331	70,1579
3210,8975	70,1187
3211,8616	70,0866
3212,8259	70,0632
3213,7900	70,0426
3214,7544	70,0168
3215,7185	69,9812
3216,6829	69,9391
3217,6470	69,8997
3218,6113	69,8724
3219,5754	69,8606
3220,5398	69,8598
3221,5039	69,8598
3222,4683	69,8512
3223,4324	69,8299
3224,3967	69,7989
3225,3608	69,7655
3226,3252	69,7369
3227,2893	69,7161
3228,2537	69,6996
3229,2178	69,6801
3230,1821	69,6511
3231,1462	69,6113
3232,1106	69,5665
3233,0747	69,5266
3234,0391	69,5008
3235,0032	69,4922
3235,9675	69,4966
3236,9316	69,5052
3237,8960	69,5092
3238,8601	69,5043
3239,8245	69,4915
3240,7886	69,4759
3241,7529	69,4637
3242,7170	69,4599
3243,6814	69,4674
3244,6455	69,4856
3245,6099	69,5103
3246,5740	69,5345
3247,5383	69,5507
3248,5024	69,5542
3249,4668	69,5446
3250,4309	69,5263
3251,3953	69,5058
3252,3594	69,4888
3253,3237	69,4782
3254,2878	69,4746
3255,2522	69,4773
3256,2163	69,4861
3257,1807	69,5007
3258,1448	69,5191
3259,1091	69,5372
3260,0732	69,5499
3261,0376	69,5543
3262,0017	69,5517
3262,9661	69,5468
3263,9302	69,5442
3264,8945	69,5445
3265,8586	69,5437
3266,8230	69,5363
3267,7871	69,5193
3268,7515	69,4957
3269,7156	69,4731
3270,6799	69,4598
3271,6440	69,4607
3272,6084	69,4748
3273,5725	69,4964
3274,5369	69,5182
3275,5010	69,5349
3276,4653	69,5449
3277,4294	69,5503
3278,3938	69,5547
3279,3579	69,5614
3280,3223	69,571
3281,2864	69,5817
3282,2507	69,5899
3283,2148	69,593
3284,1792	69,5908
3285,1433	69,5854
3286,1077	69,5801
3287,0718	69,577
3288,0361	69,5763
3289,0002	69,5773
3289,9646	69,58
3290,9287	69,5857
3291,8931	69,5951
3292,8572	69,6066
3293,8215	69,6151
3294,7856	69,6151
3295,7500	69,6049
3296,7141	69,589
3297,6785	69,5774
3298,6426	69,5801
3299,6069	69,6021
3300,5710	69,6392
3301,5354	69,68
3302,4995	69,7104
3303,4639	69,7198
3304,4280	69,7054
3305,3923	69,6728
3306,3564	69,634
3307,3208	69,6021
3308,2849	69,5867
3309,2493	69,5905
3310,2134	69,6089
3311,1777	69,6336
3312,1418	69,6572
3313,1062	69,6767
3314,0703	69,6935
3315,0347	69,7104
3315,9988	69,7279
3316,9631	69,7427
3317,9272	69,7492
3318,8916	69,7433
3319,8557	69,7254
3320,8201	69,701
3321,7842	69,6782
3322,7485	69,6646
3323,7126	69,6633
3324,6770	69,6732
3325,6411	69,6905
3326,6055	69,7111
3327,5696	69,7332
3328,5339	69,7561
3329,4980	69,7792
3330,4624	69,7991
3331,4265	69,8101
3332,3909	69,8066
3333,3550	69,787
3334,3193	69,7563
3335,2834	69,7246
3336,2478	69,701
3337,2119	69,689
3338,1763	69,6842
3339,1404	69,6793
3340,1047	69,6704
3341,0688	69,6597
3342,0332	69,6533
3342,9973	69,6557
3343,9617	69,6652
3344,9258	69,6762
3345,8901	69,6841
3346,8542	69,6907
3347,8186	69,7031
3348,7827	69,7279
3349,7471	69,7642
3350,7112	69,802
3351,6755	69,8283
3352,6396	69,8344
3353,6040	69,822
3354,5681	69,8009
3355,5325	69,7836
3356,4966	69,7774
3357,4609	69,7823
3358,4250	69,7929
3359,3894	69,8025
3360,3535	69,8067
3361,3179	69,8046
3362,2820	69,7983
3363,2463	69,7928
3364,2104	69,7949
3365,1748	69,8114
3366,1389	69,8468
3367,1033	69,9
3368,0674	69,9633
3369,0317	70,0238
3369,9958	70,068
3370,9602	70,0866
3371,9243	70,0788
3372,8887	70,0531
3373,8528	70,0246
3374,8171	70,0097
3375,7813	70,0198
3376,7456	70,0571
3377,7097	70,115
3378,6741	70,1812
3379,6382	70,2426
3380,6025	70,2893
3381,5667	70,3151
3382,5310	70,3182
3383,4951	70,3017
3384,4595	70,2749
3385,4236	70,2519
3386,3879	70,2476
3387,3521	70,2713
3388,3164	70,3219
3389,2805	70,3883
3390,2449	70,4547
3391,2090	70,5086
3392,1733	70,5465
3393,1375	70,5741
3394,1018	70,6005
3395,0659	70,6311
3396,0303	70,665
3396,9944	70,6977
3397,9587	70,7268
3398,9229	70,7549
3399,8872	70,789
3400,8513	70,8347
3401,8157	70,8918
3402,7798	70,9541
3403,7441	71,0139
3404,7083	71,0681
3405,6726	71,1199
3406,6367	71,1763
3407,6011	71,2408
3408,5652	71,3092
3409,5295	71,3707
3410,4937	71,4149
3411,4580	71,4399
3412,4221	71,4546
3413,3865	71,4746
3414,3506	71,5126
3415,3149	71,5711
3416,2791	71,6407
3417,2434	71,7068
3418,2075	71,759
3419,1719	71,7972
3420,1360	71,8323
3421,1003	71,8783
3422,0645	71,9437
3423,0288	72,026
3423,9929	72,1155
3424,9573	72,2019
3425,9214	72,2794
3426,8857	72,348
3427,8499	72,4108
3428,8142	72,4701
3429,7783	72,5256
3430,7427	72,5758
3431,7068	72,6214
3432,6711	72,668
3433,6353	72,7234
3434,5996	72,792
3435,5637	72,8705
3436,5281	72,9477
3437,4922	73,0108
3438,4565	73,0532
3439,4207	73,0785
3440,3850	73,0991
3441,3491	73,1284
3442,3135	73,1734
3443,2776	73,2324
3444,2419	73,2977
3445,2061	73,363
3446,1704	73,4274
3447,1345	73,4959
3448,0989	73,5743
3449,0630	73,6646
3450,0273	73,7646
3450,9915	73,8681
3451,9558	73,9674
3452,9199	74,0548
3453,8843	74,1267
3454,8484	74,1854
3455,8127	74,238
3456,7769	74,2911
3457,7412	74,3462
3458,7053	74,3985
3459,6697	74,4409
3460,6338	74,4702
3461,5981	74,4905
3462,5623	74,5126
3463,5266	74,5478
3464,4907	74,6035
3465,4551	74,6815
3466,4192	74,7797
3467,3835	74,8927
3468,3477	75,0123
3469,3120	75,1267
3470,2761	75,2235
3471,2405	75,2941
3472,2046	75,3398
3473,1689	75,3727
3474,1331	75,4104
3475,0974	75,4665
3476,0615	75,5432
3477,0259	75,6325
3477,9900	75,7239
3478,9543	75,8104
3479,9185	75,891
3480,8828	75,9663
3481,8469	76,0338
3482,8113	76,0873
3483,7754	76,1251
3484,7397	76,1559
3485,7039	76,1982
3486,6682	76,2705
3487,6323	76,3787
3488,5967	76,5103
3489,5608	76,6398
3490,5251	76,7445
3491,4893	76,8179
3492,4536	76,8721
3493,4177	76,9296
3494,3821	77,011
3495,3462	77,1236
3496,3105	77,2565
3497,2747	77,3856
3498,2390	77,486
3499,2031	77,5422
3500,1675	77,5537
3501,1316	77,5386
3502,0959	77,5318
3503,0601	77,5681
3504,0244	77,6582
3504,9885	77,7839
3505,9529	77,9155
3506,9170	78,0297
3507,8813	78,1192
3508,8455	78,1951
3509,8098	78,2806
3510,7739	78,3952
3511,7383	78,5398
3512,7024	78,6975
3513,6667	78,8449
3514,6309	78,9638
3515,5952	79,0481
3516,5593	79,1049
3517,5237	79,1486
3518,4878	79,1924
3519,4521	79,2416
3520,4163	79,2932
3521,3806	79,3414
3522,3447	79,3828
3523,3091	79,4178
3524,2732	79,4501
3525,2375	79,4871
3526,2017	79,5424
3527,1660	79,6356
3528,1301	79,7827
3529,0945	79,9814
3530,0586	80,2059
3531,0229	80,4193
3531,9871	80,5931
3532,9514	80,7174
3533,9155	80,8026
3534,8799	80,8722
3535,8440	80,9512
3536,8083	81,0503
3537,7725	81,1576
3538,7368	81,2482
3539,7009	81,3019
3540,6653	81,3126
3541,6294	81,2892
3542,5938	81,254
3543,5579	81,2443
3544,5222	81,3025
3545,4863	81,4447
3546,4507	81,6352
3547,4148	81,8103
3548,3792	81,9295
3549,3433	81,9956
3550,3076	82,0404
3551,2717	82,1026
3552,2361	82,2072
3553,2002	82,351
3554,1646	82,5041
3555,1287	82,6343
3556,0930	82,7268
3557,0571	82,7834
3558,0215	82,8122
3558,9856	82,8229
3559,9500	82,8256
3560,9141	82,8295
3561,8784	82,8396
3562,8425	82,8512
3563,8069	82,851
3564,7710	82,8398
3565,7354	82,874
3566,6995	83,0408
3567,6638	83,3266
3568,6279	83,5962
3569,5923	83,7544
3570,5564	83,8153
3571,5208	83,8359
3572,4849	83,8569
3573,4492	83,892
3574,4133	83,9416
3575,3777	84,002
3576,3418	84,0654
3577,3062	84,1172
3578,2703	84,1387
3579,2346	84,1171
3580,1987	84,0567
3581,1631	83,9814
3582,1272	83,9233
3583,0916	83,9007
3584,0557	83,9007
3585,0200	83,884
3585,9841	83,8218
3586,9485	83,7243
3587,9126	83,6002
3588,8770	83,4184
3589,8411	83,1636
3590,8054	82,8735
3591,7695	82,607
3592,7339	82,4148
3593,6980	82,3317
3594,6624	82,3604
3595,6265	82,4509
3596,5908	82,5262
3597,5549	82,5475
3598,5193	82,5486
3599,4834	82,6102
3600,4478	82,796
3601,4119	83,0981
3602,3762	83,4484
3603,3403	83,781
3604,3047	84,0751
3605,2688	84,3601
3606,2332	84,706
3607,1973	85,1931
3608,1616	85,842
3609,1257	86,5597
3610,0901	87,1847
3611,0542	87,5874
3612,0186	87,727
3612,9827	87,6496
3613,9470	87,4557
3614,9111	87,2492
3615,8755	87,0882
3616,8396	86,9634
3617,8040	86,8139
3618,7681	86,5717
3619,7324	86,21
3620,6965	85,7629
3621,6609	85,3167
3622,6250	84,9795
3623,5894	84,8384
3624,5535	84,9227
3625,5178	85,1862
3626,4819	85,5236
3627,4463	85,8457
3628,4104	86,1515
3629,3748	86,4477
3630,3389	86,6803
3631,3032	86,8606
3632,2673	87,0896
3633,2317	87,4505
3634,1958	87,9488
3635,1602	88,5242
3636,1243	89,0961
3637,0886	89,6096
3638,0527	90,0523
3639,0171	90,4386
3639,9812	90,7865
3640,9456	91,1078
3641,9097	91,4164
3642,8740	91,7327
3643,8381	92,0699
3644,8025	92,3987
3645,7666	92,6135
3646,7310	92,5708
3647,6951	92,3134
3648,6594	92,283
3649,6235	92,7509
3650,5879	93,3009
3651,5520	93,587
3652,5164	93,6638
3653,4805	93,6798
3654,4448	93,7045
3655,4089	93,7372
3656,3733	93,7598
3657,3374	93,7639
3658,3018	93,7544
3659,2659	93,7511
3660,2302	93,7749
3661,1943	93,8278
3662,1587	93,8954
3663,1228	93,97
3664,0872	94,0665
3665,0513	94,2037
3666,0156	94,3667
3666,9797	94,4855
3667,9441	94,4803
3668,9082	94,369
3669,8726	94,2883
3670,8367	94,3355
3671,8010	94,4694
3672,7651	94,5679
3673,7295	94,4923
3674,6936	94,1848
3675,6580	93,7825
3676,6221	93,4899
3677,5864	93,3407
3678,5505	93,2611
3679,5149	93,2059
3680,4790	93,155
3681,4434	93,0943
3682,4075	93,032
3683,3718	93,009
3684,3359	93,0716
3685,3003	93,2142
3686,2644	93,3284
3687,2288	93,2105
3688,1929	92,701
3689,1572	91,9054
3690,1213	91,1512
3691,0857	90,6416
3692,0498	90,3639
3693,0142	90,2449
3693,9783	90,2286
3694,9426	90,279
3695,9067	90,3772
3696,8711	90,5156
3697,8352	90,6806
3698,7996	90,8352
3699,7637	90,9211
3700,7280	90,8935
3701,6921	90,7648
3702,6565	90,6049
3703,6206	90,4933
3704,5850	90,4769
3705,5491	90,5613
3706,5134	90,7157
3707,4775	90,8916
3708,4419	91,0841
3709,4060	91,4353
3710,3704	92,2187
3711,3345	93,4726
3712,2988	94,7378
3713,2629	95,5222
3714,2273	95,7197
3715,1914	95,4727
3716,1558	94,938
3717,1199	94,207
3718,0842	93,3284
3719,0483	92,3554
3720,0127	91,3656
3720,9768	90,4359
3721,9412	89,6063
3722,9053	88,883
3723,8696	88,2782
3724,8337	87,8323
3725,7981	87,5865
3726,7622	87,5456
3727,7266	87,6823
3728,6907	87,9614
3729,6550	88,342
3730,6191	88,761
3731,5835	89,1278
3732,5476	89,3663
3733,5120	89,5233
3734,4761	89,8247
3735,4404	90,4433
3736,4045	91,2326
3737,3689	91,9534
3738,3330	92,5722
3739,2974	93,2156
3740,2615	94,0083
3741,2258	94,9736
3742,1899	95,9976
3743,1543	96,8611
3744,1184	97,3605
3745,0828	97,4542
3746,0469	97,2877
3747,0112	97,0698
3747,9753	96,9376
3748,9397	96,9416
3749,9038	97,1343
3750,8682	97,5472
3751,8323	98,0029
3752,7966	98,2607
3753,7607	98,3169
3754,7251	98,3163
3755,6892	98,3576
3756,6536	98,4453
3757,6177	98,5394
3758,5820	98,6118
3759,5461	98,6569
3760,5105	98,6773
3761,4746	98,6851
3762,4390	98,6982
3763,4031	98,7263
3764,3674	98,7644
3765,3315	98,8016
3766,2959	98,8302
3767,2600	98,8479
3768,2244	98,8567
3769,1885	98,8618
3770,1528	98,8662
3771,1169	98,8658
3772,0813	98,858
3773,0454	98,854
3774,0098	98,8731
3774,9739	98,9189
3775,9382	98,9705
3776,9023	98,9917
3777,8667	98,9723
3778,8308	98,9339
3779,7952	98,8954
3780,7593	98,8501
3781,7236	98,7879
3782,6877	98,7173
3783,6521	98,6636
3784,6162	98,6542
3785,5806	98,6993
3786,5447	98,7826
3787,5090	98,8722
3788,4731	98,9454
3789,4375	99,0014
3790,4016	99,0521
3791,3660	99,1009
3792,3301	99,1279
3793,2944	99,0973
3794,2585	98,9865
3795,2229	98,8174
3796,1870	98,6533
3797,1514	98,5546
3798,1155	98,5324
3799,0798	98,5464
3800,0439	98,5528
3801,0083	98,5511
3801,9724	98,5645
3802,9368	98,5984
3803,9009	98,6535
3804,8652	98,7369
3805,8293	98,8443
3806,7937	98,9504
3807,7578	99,017
3808,7222	99,0233
3809,6863	99,0045
3810,6506	99,0369
3811,6147	99,1657
3812,5791	99,3501
3813,5432	99,4737
3814,5076	99,429
3815,4717	99,2123
3816,4360	98,9187
3817,4001	98,6461
3818,3645	98,4376
3819,3286	98,3068
3820,2930	98,2703
3821,2571	98,3189
3822,2214	98,3811
3823,1855	98,3914
3824,1499	98,3626
3825,1140	98,3525
3826,0784	98,4019
3827,0425	98,5094
3828,0068	98,6412
3828,9709	98,7543
3829,9353	98,8193
3830,8994	98,8331
3831,8638	98,8163
3832,8279	98,7977
3833,7922	98,79
3834,7563	98,7724
3835,7207	98,6975
3836,6848	98,5348
3837,6492	98,3221
3838,6133	98,1538
3839,5776	98,097
3840,5417	98,1489
3841,5061	98,2756
3842,4702	98,4403
3843,4346	98,5978
3844,3987	98,6986
3845,3630	98,7209
3846,3271	98,6987
3847,2915	98,7141
3848,2556	98,8515
3849,2200	99,1391
3850,1841	99,4966
3851,1484	99,7393
3852,1125	99,7393
3853,0769	99,6436
3854,0410	99,5934
3855,0054	99,4347
3855,9697	99,1279
3856,9338	98,8324
3857,8982	98,68
3858,8623	98,6855
3859,8267	98,7683
3860,7908	98,812
3861,7551	98,746
3862,7192	98,6108
3863,6836	98,524
3864,6477	98,559
3865,6121	98,6922
3866,5762	98,8509
3867,5405	98,9617
3868,5046	98,9754
3869,4690	98,8941
3870,4331	98,7827
3871,3975	98,7222
3872,3616	98,7453
3873,3259	98,8309
3874,2900	98,9482
3875,2544	99,0808
3876,2185	99,2138
3877,1829	99,3158
3878,1470	99,34
3879,1113	99,256
3880,0754	99,0882
3881,0398	98,9148
3882,0039	98,8179
3882,9683	98,8353
3883,9324	98,9504
3884,8967	99,1078
3885,8608	99,2404
3886,8252	99,3046
3887,7893	99,2978
3888,7537	99,2377
3889,7178	99,1369
3890,6821	99,0107
3891,6462	98,8958
3892,6106	98,8246
3893,5747	98,8002
3894,5391	98,8221
3895,5032	98,8974
3896,4675	99,0135
3897,4316	99,1264
3898,3960	99,1888
3899,3601	99,1848
3900,3245	99,1292
3901,2886	99,0412
3902,2529	98,9432
3903,2170	98,873
3904,1814	98,8613
3905,1455	98,8998
3906,1099	98,9592
3907,0740	99,0236
3908,0383	99,0918
3909,0024	99,1611
3909,9668	99,2223
3910,9309	99,2659
3911,8953	99,2888
3912,8594	99,2917
3913,8237	99,2718
3914,7878	99,2243
3915,7522	99,1546
3916,7163	99,0872
3917,6807	99,0483
3918,6448	99,0368
3919,6091	99,0275
3920,5732	99,0019
3921,5376	98,9617
3922,5017	98,9229
3923,4661	98,905
3924,4302	98,9161
3925,3945	98,9417
3926,3586	98,9556
3927,3230	98,9419
3928,2871	98,9026
3929,2515	98,851
3930,2156	98,8097
3931,1799	98,8059
3932,1440	98,8512
3933,1084	98,9292
3934,0725	99,0127
3935,0369	99,0888
3936,0010	99,1592
3936,9653	99,2246
3937,9294	99,2752
3938,8938	99,2936
3939,8579	99,2664
3940,8223	99,1978
3941,7864	99,112
3942,7507	99,0388
3943,7148	98,9939
3944,6792	98,9743
3945,6433	98,9683
3946,6077	98,9655
3947,5718	98,9612
3948,5361	98,9574
3949,5002	98,9582
3950,4646	98,9636
3951,4287	98,9708
3952,3931	98,9794
3953,3572	98,9924
3954,3215	99,0107
3955,2856	99,0311
3956,2500	99,0469
3957,2141	99,0522
3958,1785	99,0456
3959,1426	99,0326
3960,1069	99,0242
3961,0710	99,0323
3962,0354	99,0634
3962,9995	99,1139
3963,9639	99,1719
3964,9280	99,2223
3965,8923	99,2521
3966,8564	99,2531
3967,8208	99,2229
3968,7849	99,166
3969,7493	99,0929
3970,7134	99,0183
3971,6777	98,9586
3972,6418	98,928
3973,6062	98,9344
3974,5703	98,9752
3975,5347	99,0369
3976,4988	99,0997
3977,4631	99,1456
3978,4272	99,1651
3979,3916	99,1595
3980,3557	99,138
3981,3201	99,1131
3982,2842	99,0946
3983,2485	99,0864
3984,2126	99,0857
3985,1770	99,0869
3986,1411	99,0853
3987,1055	99,0801
3988,0696	99,0749
3989,0339	99,0744
3989,9980	99,0817
3990,9624	99,0956
3991,9265	99,1118
3992,8909	99,1268
3993,8550	99,1409
3994,8193	99,1572
3995,7834	99,1779
3996,7478	99,2003
3997,7119	99,2178
3998,6763	99,2236
3999,6404	99,2165
4000,6047	98,9627

##### Extended Information
[Comments]
Sample name	N-GQD_CA_NO2
Comment
User
Division
Company	ICMAB

[Detailed Information]
Creation date	25/11/2024 19:34

Data array type	Linear data array
Horizontal axis	Wavenumber [cm-1]
Vertical axis	%T
Start	399,193 cm-1
End	4000,6 cm-1
Data interval	0,964233 cm-1
Data points	3736    

[Measurement Information]
Model Name	FT/IR-4700typeA
Serial Number	C033961788

Accessory	ATR-PRO-ONE
Accessory S/N	B102761809
Incident angle	45 deg

Measurement Date	25/11/2024 19:32

Light Source	Standard
Detector	TGS
Accumulation	32
Resolution	4 cm-1
Zero Filling	On
Apodization	Cosine
Gain	Auto (8)
Aperture	Auto (7.1 mm)
Scanning Speed	Auto (2 mm/sec)
Filter	Auto (30000 Hz)

