TITLE	N-GQD_CA
DATA TYPE	INFRARED SPECTRUM
ORIGIN	JASCO
OWNER	
DATE	24/11/25
TIME	19:22:01
SPECTROMETER/DATA SYSTEM	
LOCALE	3082
RESOLUTION	
DELTAX	0,964233
XUNITS	1/CM
YUNITS	TRANSMITTANCE
FIRSTX	  399,1927
LASTX	 4000,6047
NPOINTS	    3736
FIRSTY	    79,59370
MAXY	    99,73621
MINY	    42,39575
XYDATA
399,1927	79,5937
400,1569	79,9046
401,1211	78,7588
402,0854	77,6227
403,0496	77,4066
404,0138	78,5028
404,9781	80,7912
405,9423	83,6809
406,9065	86,3193
407,8708	87,9872
408,8350	88,417
409,7992	87,7761
410,7635	86,3902
411,7277	84,4845
412,6919	82,1359
413,6562	79,4015
414,6204	76,4678
415,5846	73,7539
416,5489	72,0098
417,5131	72,2777
418,4773	75,1557
419,4416	79,3975
420,4058	82,454
421,3700	83,1911
422,3343	82,302
423,2985	80,8587
424,2627	79,5645
425,2270	78,7069
426,1912	78,3035
427,1554	78,2877
428,1197	78,648
429,0839	79,4208
430,0481	80,562
431,0124	81,8308
431,9766	82,8142
432,9408	83,1131
433,9051	82,5769
434,8693	81,416
435,8335	80,0947
436,7978	79,0647
437,7620	78,5355
438,7262	78,4395
439,6905	78,559
440,6547	78,6743
441,6189	78,6465
442,5832	78,4314
443,5474	78,0517
444,5116	77,555
445,4759	76,9857
446,4401	76,3839
447,4043	75,7946
448,3686	75,2714
449,3328	74,8675
450,2970	74,6176
451,2613	74,515
452,2255	74,4976
453,1897	74,4557
454,1540	74,2627
455,1182	73,8182
456,0824	73,0962
457,0467	72,1956
458,0109	71,3413
458,9751	70,7712
459,9394	70,5737
460,9036	70,6505
461,8678	70,8215
462,8321	70,9321
463,7963	70,8912
464,7605	70,6636
465,7248	70,2458
466,6890	69,64
467,6532	68,8399
468,6175	67,8367
469,5817	66,6462
470,5459	65,3445
471,5102	64,0864
472,4744	63,0681
473,4386	62,4288
474,4029	62,1695
475,3671	62,1711
476,3313	62,2833
477,2956	62,4
478,2598	62,4906
479,2240	62,594
480,1883	62,779
481,1525	63,0762
482,1167	63,4077
483,0810	63,5646
484,0452	63,2826
485,0094	62,4111
485,9737	61,053
486,9379	59,54
487,9021	58,2751
488,8664	57,5834
489,8306	57,6315
490,7948	58,3813
491,7591	59,5778
492,7233	60,8274
493,6875	61,7907
494,6518	62,3789
495,6160	62,7958
496,5802	63,3655
497,5445	64,2342
498,5087	65,1209
499,4729	65,2986
500,4372	63,9286
501,4014	60,6861
502,3656	56,301
503,3299	52,4634
504,2941	50,9466
505,2583	52,5477
506,2226	56,6402
507,1868	61,5943
508,1510	65,7193
509,1153	68,1169
510,0795	68,9453
511,0437	69,0314
512,0080	69,2187
512,9722	69,9211
513,9365	71,0674
514,9007	72,3308
515,8649	73,4231
516,8292	74,2769
517,7934	75,0283
518,7576	75,8392
519,7219	76,7438
520,6861	77,6566
521,6503	78,4809
522,6146	79,1817
523,5788	79,7893
524,5430	80,3678
525,5073	80,9795
526,4715	81,6583
527,4357	82,4023
528,4000	83,1871
529,3642	83,9836
530,3284	84,7672
531,2927	85,5144
532,2569	86,1968
533,2211	86,7791
534,1854	87,229
535,1496	87,537
536,1138	87,7346
537,0781	87,8958
538,0423	88,1114
539,0065	88,4467
539,9708	88,9074
540,9350	89,439
541,8992	89,9616
542,8635	90,4163
543,8277	90,7922
544,7919	91,1204
545,7562	91,4431
546,7204	91,781
547,6846	92,122
548,6489	92,4345
549,6131	92,6919
550,5773	92,887
551,5416	93,0295
552,5058	93,1385
553,4700	93,2392
554,4343	93,3675
555,3985	93,5708
556,3627	93,8939
557,3270	94,3514
558,2912	94,9022
559,2554	95,448
560,2197	95,8658
561,1839	96,0618
562,1481	96,0231
563,1124	95,8329
564,0766	95,6363
565,0408	95,5713
566,0051	95,7031
566,9693	95,9932
567,9335	96,3203
568,8978	96,5484
569,8620	96,6055
570,8262	96,5182
571,7905	96,379
572,7547	96,2796
573,7189	96,2598
574,6832	96,2987
575,6474	96,3441
576,6116	96,3582
577,5759	96,3418
578,5401	96,3198
579,5043	96,3039
580,4686	96,2691
581,4328	96,1667
582,3970	96,072
583,3613	95,8941
584,3255	95,7008
585,2897	95,5793
586,2540	95,5861
587,2182	95,7208
588,1824	95,9332
589,1467	96,1527
590,1109	96,3188
591,0751	96,4007
592,0394	96,401
593,0036	96,3442
593,9678	96,2593
594,9321	96,1692
595,8963	96,0914
596,8605	96,0405
597,8248	96,0259
598,7890	96,0427
599,7532	96,0657
600,7175	96,0607
601,6817	96,0108
602,6459	95,9391
603,6102	95,9043
604,5744	95,9676
605,5386	96,1497
606,5029	96,4109
607,4671	96,6683
608,4313	96,8424
609,3956	96,8957
610,3598	96,8353
611,3240	96,6824
612,2883	96,4416
613,2525	96,1032
614,2167	95,6802
615,1810	95,2459
616,1452	94,9299
617,1094	94,8548
618,0737	95,0502
619,0379	95,4196
620,0021	95,796
620,9664	96,041
621,9306	96,1112
622,8948	96,055
623,8591	95,9574
624,8233	95,8734
625,7875	95,7957
626,7518	95,6762
627,7160	95,477
628,6802	95,2083
629,6445	94,9228
630,6087	94,6817
631,5729	94,5209
632,5372	94,4375
633,5014	94,4
634,4656	94,3656
635,4299	94,2919
636,3941	94,1401
637,3583	93,8789
638,3226	93,4958
639,2868	93,0119
640,2510	92,4816
641,2153	91,9706
642,1795	91,5196
643,1437	91,1203
644,1080	90,7223
645,0722	90,2732
646,0364	89,7633
647,0007	89,2439
647,9649	88,8015
648,9291	88,4996
649,8934	88,3299
650,8576	88,2098
651,8218	88,0355
652,7861	87,754
653,7503	87,3997
654,7145	87,0731
655,6788	86,8745
656,6430	86,8433
657,6072	86,9471
658,5715	87,1216
659,5357	87,3239
660,4999	87,5491
661,4642	87,796
662,4284	88,015
663,3926	88,0863
664,3569	87,8305
665,3211	87,0329
666,2853	85,5269
667,2496	83,4625
668,2138	81,6366
669,1780	81,0247
670,1423	81,6509
671,1065	82,7499
672,0707	83,6906
673,0350	84,2272
673,9992	84,3611
674,9634	84,2272
675,9277	84,0173
676,8919	83,8893
677,8561	83,8953
678,8204	83,9878
679,7846	84,0871
680,7488	84,1408
681,7131	84,141
682,6773	84,1075
683,6415	84,0624
684,6058	84,0198
685,5700	83,9893
686,5342	83,9836
687,4985	84,0178
688,4627	84,1023
689,4269	84,2358
690,3912	84,4054
691,3554	84,593
692,3196	84,7819
693,2839	84,9586
694,2481	85,1109
695,2123	85,2267
696,1766	85,2975
697,1408	85,3246
698,1050	85,3242
699,0693	85,3236
700,0335	85,3491
700,9977	85,4105
701,9620	85,4933
702,9262	85,5639
703,8904	85,5891
704,8547	85,5557
705,8189	85,4786
706,7831	85,3889
707,7474	85,3126
708,7116	85,2574
709,6758	85,2174
710,6401	85,1886
711,6043	85,1768
712,5685	85,1855
713,5328	85,1932
714,4970	85,1428
715,4612	84,9635
716,4255	84,6158
717,3897	84,1333
718,3539	83,6289
719,3182	83,2514
720,2824	83,1083
721,2466	83,2025
722,2109	83,4356
723,1751	83,6729
724,1393	83,8187
725,1036	83,8494
726,0678	83,8002
727,0320	83,7257
727,9963	83,6651
728,9605	83,6282
729,9247	83,6054
730,8890	83,5839
731,8532	83,5574
732,8174	83,5238
733,7817	83,4794
734,7459	83,4162
735,7101	83,3268
736,6744	83,211
737,6386	83,0785
738,6028	82,9458
739,5671	82,8304
740,5313	82,7439
741,4955	82,689
742,4598	82,6583
743,4240	82,6375
744,3882	82,6108
745,3525	82,5676
746,3167	82,5072
747,2809	82,4393
748,2452	82,3782
749,2094	82,3335
750,1736	82,3034
751,1379	82,2719
752,1021	82,2147
753,0663	82,1095
754,0306	81,947
754,9948	81,7379
755,9590	81,5117
756,9233	81,3072
757,8875	81,158
758,8517	81,0793
759,8160	81,0618
760,7802	81,0762
761,7444	81,0863
762,7087	81,0632
763,6729	80,9958
764,6371	80,8907
765,6014	80,7642
766,5656	80,6307
767,5298	80,4965
768,4941	80,3601
769,4583	80,2191
770,4225	80,0758
771,3868	79,9377
772,3510	79,8112
773,3152	79,6948
774,2795	79,5755
775,2437	79,4337
776,2079	79,254
777,1722	79,0353
778,1364	78,7935
779,1006	78,5556
780,0649	78,3458
781,0291	78,1735
781,9933	78,0284
782,9576	77,885
783,9218	77,7152
784,8860	77,5004
785,8503	77,2397
786,8145	76,9489
787,7787	76,6539
788,7430	76,3808
789,7072	76,1478
790,6714	75,9604
791,6357	75,8109
792,5999	75,6812
793,5641	75,5495
794,5284	75,3969
795,4926	75,2138
796,4568	75,0029
797,4211	74,777
798,3853	74,5533
799,3495	74,3464
800,3138	74,1625
801,2780	73,9971
802,2422	73,8365
803,2065	73,6626
804,1707	73,4597
805,1349	73,2223
806,0992	72,9588
807,0634	72,6907
808,0276	72,4442
808,9919	72,2392
809,9561	72,08
810,9203	71,9529
811,8846	71,8323
812,8488	71,6916
813,8130	71,5133
814,7773	71,2945
815,7415	71,0448
816,7057	70,7808
817,6700	70,5187
818,6342	70,2695
819,5984	70,0376
820,5627	69,8215
821,5269	69,6169
822,4911	69,4185
823,4554	69,221
824,4196	69,0192
825,3839	68,8093
826,3481	68,5911
827,3123	68,3699
828,2766	68,1565
829,2408	67,962
830,2050	67,791
831,1693	67,6372
832,1335	67,4855
833,0977	67,3205
834,0620	67,1354
835,0262	66,9367
835,9904	66,739
836,9547	66,5556
837,9189	66,3897
838,8831	66,2339
839,8474	66,0752
840,8116	65,9018
841,7758	65,7075
842,7401	65,4905
843,7043	65,2514
844,6685	64,9931
845,6328	64,7224
846,5970	64,4505
847,5612	64,1899
848,5255	63,9477
849,4897	63,7205
850,4539	63,4949
851,4182	63,2546
852,3824	62,9899
853,3466	62,7031
854,3109	62,4047
855,2751	62,1046
856,2393	61,8022
857,2036	61,4849
858,1678	61,135
859,1320	60,7427
860,0963	60,3144
861,0605	59,8721
862,0247	59,4424
862,9890	59,0426
863,9532	58,6732
864,9174	58,3215
865,8817	57,9747
866,8459	57,6309
867,8101	57,3022
868,7744	57,005
869,7386	56,7462
870,7028	56,5146
871,6671	56,285
872,6313	56,033
873,5955	55,7515
874,5598	55,4575
875,5240	55,1855
876,4882	54,9722
877,4525	54,8416
878,4167	54,7995
879,3809	54,8378
880,3452	54,9427
881,3094	55,1008
882,2736	55,2992
883,2379	55,522
884,2021	55,7494
885,1663	55,9594
886,1306	56,1344
887,0948	56,2654
888,0590	56,3527
889,0233	56,4012
889,9875	56,4156
890,9517	56,3965
891,9160	56,3397
892,8802	56,2386
893,8444	56,0866
894,8087	55,8799
895,7729	55,6203
896,7371	55,3163
897,7014	54,9822
898,6656	54,6334
899,6298	54,281
900,5941	53,9272
901,5583	53,5664
902,5225	53,19
903,4868	52,7926
904,4510	52,3744
905,4152	51,9376
906,3795	51,4825
907,3437	51,0044
908,3079	50,497
909,2722	49,9585
910,2364	49,3961
911,2006	48,8248
912,1649	48,2614
913,1291	47,7172
914,0933	47,1955
915,0576	46,6933
916,0218	46,2067
916,9860	45,7356
917,9503	45,284
918,9145	44,858
919,8787	44,4619
920,8430	44,0967
921,8072	43,7602
922,7714	43,4501
923,7357	43,167
924,6999	42,9169
925,6641	42,7096
926,6284	42,5545
927,5926	42,4557
928,5568	42,4075
929,5211	42,3957
930,4853	42,4036
931,4495	42,4203
932,4138	42,4465
933,3780	42,4947
934,3422	42,5826
935,3065	42,7235
936,2707	42,9202
937,2349	43,1645
938,1992	43,4424
939,1634	43,7421
940,1276	44,0594
941,0919	44,3974
942,0561	44,7612
943,0203	45,1515
943,9846	45,5611
944,9488	45,9782
945,9130	46,3925
946,8773	46,8025
947,8415	47,2165
948,8057	47,6489
949,7700	48,1123
950,7342	48,6116
951,6984	49,143
952,6627	49,6981
953,6269	50,2687
954,5911	50,8503
955,5554	51,4411
956,5196	52,0394
957,4838	52,642
958,4481	53,2449
959,4123	53,845
960,3765	54,4417
961,3408	55,0364
962,3050	55,6311
963,2692	56,2262
964,2335	56,8197
965,1977	57,4061
966,1619	57,9782
967,1262	58,5273
968,0904	59,0462
969,0546	59,5317
970,0189	59,9858
970,9831	60,4151
971,9473	60,8276
972,9116	61,229
973,8758	61,6208
974,8400	62,0012
975,8043	62,3671
976,7685	62,7158
977,7327	63,0444
978,6970	63,3482
979,6612	63,6204
980,6254	63,8544
981,5897	64,0478
982,5539	64,2039
983,5181	64,3293
984,4824	64,4296
985,4466	64,5043
986,4108	64,5482
987,3751	64,555
988,3393	64,5226
989,3035	64,4543
990,2678	64,3565
991,2320	64,2348
992,1962	64,0922
993,1605	63,9317
994,1247	63,7585
995,0889	63,58
996,0532	63,4017
997,0174	63,2229
997,9816	63,0357
998,9459	62,829
999,9101	62,596
1000,8743	62,338
1001,8386	62,0638
1002,8028	61,7844
1003,7670	61,5078
1004,7313	61,2371
1005,6955	60,9713
1006,6597	60,7077
1007,6240	60,4422
1008,5882	60,1695
1009,5524	59,8847
1010,5167	59,5861
1011,4809	59,2789
1012,4451	58,9749
1013,4094	58,6884
1014,3736	58,4295
1015,3378	58,1991
1016,3021	57,9894
1017,2663	57,7898
1018,2305	57,5928
1019,1948	57,3981
1020,1590	57,2115
1021,1232	57,0402
1022,0875	56,8887
1023,0517	56,7564
1024,0160	56,6382
1024,9802	56,5273
1025,9445	56,4172
1026,9087	56,3027
1027,8729	56,1795
1028,8372	56,0425
1029,8014	55,8853
1030,7656	55,7015
1031,7299	55,4867
1032,6941	55,2413
1033,6583	54,9719
1034,6226	54,6908
1035,5868	54,4126
1036,5510	54,1509
1037,5153	53,9151
1038,4795	53,71
1039,4437	53,5354
1040,4080	53,3892
1041,3722	53,2691
1042,3364	53,1761
1043,3007	53,1153
1044,2649	53,0963
1045,2291	53,1304
1046,1934	53,2265
1047,1576	53,3883
1048,1218	53,613
1049,0861	53,8927
1050,0503	54,2168
1051,0145	54,574
1051,9788	54,9527
1052,9430	55,3414
1053,9072	55,7293
1054,8715	56,1075
1055,8357	56,4706
1056,7999	56,8166
1057,7642	57,145
1058,7284	57,4547
1059,6926	57,7417
1060,6569	58,0008
1061,6211	58,2285
1062,5853	58,4272
1063,5496	58,6081
1064,5138	58,7888
1065,4780	58,988
1066,4423	59,2185
1067,4065	59,4828
1068,3707	59,7739
1069,3350	60,0797
1070,2992	60,3896
1071,2634	60,6986
1072,2277	61,0076
1073,1919	61,3207
1074,1561	61,6431
1075,1204	61,9787
1076,0846	62,3306
1077,0488	62,7009
1078,0131	63,0905
1078,9773	63,4988
1079,9415	63,9241
1080,9058	64,3644
1081,8700	64,8183
1082,8342	65,2849
1083,7985	65,7624
1084,7627	66,2472
1085,7269	66,735
1086,6912	67,2241
1087,6554	67,718
1088,6196	68,2235
1089,5839	68,7458
1090,5481	69,2819
1091,5123	69,8182
1092,4766	70,3359
1093,4408	70,8198
1094,4050	71,2653
1095,3693	71,6775
1096,3335	72,0634
1097,2977	72,4219
1098,2620	72,7411
1099,2262	73,0037
1100,1904	73,1983
1101,1547	73,3272
1102,1189	73,4049
1103,0831	73,449
1104,0474	73,4696
1105,0116	73,4651
1105,9758	73,4261
1106,9401	73,3438
1107,9043	73,2158
1108,8685	73,0469
1109,8328	72,8438
1110,7970	72,6103
1111,7612	72,3461
1112,7255	72,0493
1113,6897	71,7219
1114,6539	71,3716
1115,6182	71,0108
1116,5824	70,6518
1117,5466	70,3021
1118,5109	69,962
1119,4751	69,6271
1120,4393	69,2924
1121,4036	68,9574
1122,3678	68,6282
1123,3320	68,3152
1124,2963	68,029
1125,2605	67,7749
1126,2247	67,5509
1127,1890	67,3491
1128,1532	67,1596
1129,1174	66,9757
1130,0817	66,7974
1131,0459	66,6316
1132,0101	66,4895
1132,9744	66,3825
1133,9386	66,3172
1134,9028	66,2937
1135,8671	66,3068
1136,8313	66,3494
1137,7955	66,4166
1138,7598	66,5072
1139,7240	66,6223
1140,6882	66,7616
1141,6525	66,9215
1142,6167	67,0959
1143,5809	67,2801
1144,5452	67,4743
1145,5094	67,6835
1146,4736	67,9149
1147,4379	68,1734
1148,4021	68,4601
1149,3663	68,7722
1150,3306	69,1058
1151,2948	69,4576
1152,2590	69,8242
1153,2233	70,2006
1154,1875	70,5809
1155,1517	70,9596
1156,1160	71,3353
1157,0802	71,7128
1158,0444	72,1009
1159,0087	72,5092
1159,9729	72,9428
1160,9371	73,4007
1161,9014	73,8761
1162,8656	74,3596
1163,8298	74,8426
1164,7941	75,3194
1165,7583	75,7878
1166,7225	76,2491
1167,6868	76,7068
1168,6510	77,1658
1169,6152	77,6306
1170,5795	78,1035
1171,5437	78,5827
1172,5079	79,0624
1173,4722	79,534
1174,4364	79,9899
1175,4006	80,4272
1176,3649	80,8492
1177,3291	81,2637
1178,2933	81,6779
1179,2576	82,0932
1180,2218	82,5037
1181,1860	82,8994
1182,1503	83,2724
1183,1145	83,6221
1184,0787	83,9555
1185,0430	84,2826
1186,0072	84,6097
1186,9714	84,936
1187,9357	85,2547
1188,8999	85,5576
1189,8641	85,8406
1190,8284	86,1056
1191,7926	86,3595
1192,7568	86,6104
1193,7211	86,8639
1194,6853	87,1222
1195,6495	87,3837
1196,6138	87,6445
1197,5780	87,8996
1198,5422	88,1442
1199,5065	88,3746
1200,4707	88,5889
1201,4349	88,7871
1202,3992	88,9713
1203,3634	89,1448
1204,3276	89,3118
1205,2919	89,4762
1206,2561	89,6403
1207,2203	89,8038
1208,1846	89,9634
1209,1488	90,1148
1210,1130	90,2541
1211,0773	90,3797
1212,0415	90,4916
1213,0057	90,5904
1213,9700	90,6755
1214,9342	90,746
1215,8984	90,8034
1216,8627	90,853
1217,8269	90,9042
1218,7911	90,9654
1219,7554	91,0401
1220,7196	91,1236
1221,6838	91,2052
1222,6481	91,2738
1223,6123	91,3237
1224,5765	91,357
1225,5408	91,3832
1226,5050	91,4139
1227,4692	91,458
1228,4335	91,5188
1229,3977	91,5935
1230,3619	91,6755
1231,3262	91,7581
1232,2904	91,8371
1233,2546	91,9125
1234,2189	91,9865
1235,1831	92,0604
1236,1473	92,1308
1237,1116	92,1908
1238,0758	92,233
1239,0400	92,2561
1240,0043	92,2675
1240,9685	92,2813
1241,9327	92,3113
1242,8970	92,3636
1243,8612	92,4332
1244,8254	92,5071
1245,7897	92,5712
1246,7539	92,6172
1247,7181	92,6446
1248,6824	92,6596
1249,6466	92,6713
1250,6108	92,6888
1251,5751	92,7186
1252,5393	92,7638
1253,5035	92,8228
1254,4678	92,8898
1255,4320	92,9577
1256,3962	93,0221
1257,3605	93,0835
1258,3247	93,1475
1259,2889	93,2203
1260,2532	93,3039
1261,2174	93,3937
1262,1816	93,4815
1263,1459	93,5602
1264,1101	93,628
1265,0743	93,688
1266,0386	93,7452
1267,0028	93,8036
1267,9670	93,8653
1268,9313	93,9318
1269,8955	94,0054
1270,8597	94,0886
1271,8240	94,1826
1272,7882	94,2852
1273,7524	94,3913
1274,7167	94,4951
1275,6809	94,5929
1276,6451	94,6844
1277,6094	94,7721
1278,5736	94,8597
1279,5378	94,9503
1280,5021	95,0454
1281,4663	95,1449
1282,4305	95,2469
1283,3948	95,3488
1284,3590	95,4481
1285,3232	95,5437
1286,2875	95,6364
1287,2517	95,7291
1288,2159	95,8246
1289,1802	95,9234
1290,1444	96,0223
1291,1086	96,1163
1292,0729	96,2015
1293,0371	96,2782
1294,0013	96,3517
1294,9656	96,4296
1295,9298	96,518
1296,8940	96,618
1297,8583	96,7255
1298,8225	96,8334
1299,7867	96,9356
1300,7510	97,029
1301,7152	97,114
1302,6794	97,192
1303,6437	97,2643
1304,6079	97,3309
1305,5721	97,391
1306,5364	97,4441
1307,5006	97,4912
1308,4648	97,5348
1309,4291	97,5783
1310,3933	97,6252
1311,3575	97,6775
1312,3218	97,7348
1313,2860	97,7944
1314,2502	97,8524
1315,2145	97,9052
1316,1787	97,9504
1317,1429	97,9872
1318,1072	98,0156
1319,0714	98,0368
1320,0356	98,0537
1320,9999	98,0703
1321,9641	98,0905
1322,9283	98,1171
1323,8926	98,1497
1324,8568	98,1853
1325,8210	98,218
1326,7853	98,242
1327,7495	98,2532
1328,7137	98,2513
1329,6780	98,2402
1330,6422	98,2259
1331,6064	98,2138
1332,5707	98,205
1333,5349	98,1953
1334,4991	98,1764
1335,4634	98,1402
1336,4276	98,0843
1337,3918	98,0172
1338,3561	97,9599
1339,3203	97,9647
1340,2845	98,032
1341,2488	98,1357
1342,2130	98,2525
1343,1772	98,3613
1344,1415	98,4495
1345,1057	98,5128
1346,0699	98,5519
1347,0342	98,5716
1347,9984	98,5782
1348,9626	98,5775
1349,9269	98,5736
1350,8911	98,5683
1351,8553	98,5625
1352,8196	98,5586
1353,7838	98,5606
1354,7480	98,5719
1355,7123	98,5916
1356,6765	98,6111
1357,6407	98,6149
1358,6050	98,5844
1359,5692	98,5039
1360,5334	98,3684
1361,4977	98,1948
1362,4619	98,0227
1363,4261	97,8898
1364,3904	97,8036
1365,3546	97,741
1366,3188	97,6713
1367,2831	97,5741
1368,2473	97,4446
1369,2115	97,2893
1370,1758	97,1158
1371,1400	96,9248
1372,1042	96,7109
1373,0685	96,4745
1374,0327	96,2339
1374,9969	96,0223
1375,9612	95,8655
1376,9254	95,7625
1377,8896	95,692
1378,8539	95,6308
1379,8181	95,5656
1380,7823	95,4951
1381,7466	95,4235
1382,7108	95,3531
1383,6750	95,2806
1384,6393	95,1994
1385,6035	95,1056
1386,5677	95,003
1387,5320	94,9017
1388,4962	94,8065
1389,4604	94,7094
1390,4247	94,5946
1391,3889	94,4488
1392,3531	94,2683
1393,3174	94,0647
1394,2816	93,8643
1395,2458	93,6974
1396,2101	93,5767
1397,1743	93,4883
1398,1385	93,4072
1399,1028	93,3184
1400,0670	93,2205
1401,0313	93,1168
1401,9955	93,0075
1402,9597	92,8905
1403,9240	92,7673
1404,8882	92,6476
1405,8524	92,5451
1406,8167	92,4674
1407,7809	92,4105
1408,7451	92,3649
1409,7094	92,3246
1410,6736	92,2918
1411,6378	92,2715
1412,6021	92,2631
1413,5663	92,256
1414,5305	92,2335
1415,4948	92,1804
1416,4590	92,0916
1417,4232	91,9826
1418,3875	91,8918
1419,3517	91,8541
1420,3159	91,8667
1421,2802	91,8995
1422,2444	91,929
1423,2086	91,9492
1424,1729	91,9647
1425,1371	91,9801
1426,1013	91,9939
1427,0656	92,0004
1428,0298	91,9951
1428,9940	91,9795
1429,9583	91,9618
1430,9225	91,9494
1431,8867	91,9428
1432,8510	91,9353
1433,8152	91,9211
1434,7794	91,9034
1435,7437	91,9006
1436,7079	91,9387
1437,6721	92,0268
1438,6364	92,1471
1439,6006	92,2754
1440,5648	92,3978
1441,5291	92,5084
1442,4933	92,6028
1443,4575	92,6759
1444,4218	92,7251
1445,3860	92,7553
1446,3502	92,7811
1447,3145	92,8229
1448,2787	92,896
1449,2429	92,9995
1450,2072	93,1168
1451,1714	93,2266
1452,1356	93,3105
1453,0999	93,3531
1454,0641	93,3403
1455,0283	93,2694
1455,9926	93,1893
1456,9568	93,2361
1457,9210	93,4992
1458,8853	93,8639
1459,8495	94,187
1460,8137	94,4267
1461,7780	94,5954
1462,7422	94,7187
1463,7064	94,8282
1464,6707	94,9565
1465,6349	95,1168
1466,5991	95,2901
1467,5634	95,4426
1468,5276	95,5468
1469,4918	95,5819
1470,4561	95,5293
1471,4203	95,3829
1472,3845	95,1862
1473,3488	95,0496
1474,3130	95,0563
1475,2772	95,175
1476,2415	95,3269
1477,2057	95,4638
1478,1699	95,5733
1479,1342	95,6612
1480,0984	95,7389
1481,0626	95,8156
1482,0269	95,8926
1482,9911	95,962
1483,9553	96,0092
1484,9196	96,0166
1485,8838	95,9681
1486,8480	95,8583
1487,8123	95,7153
1488,7765	95,6222
1489,7407	95,6679
1490,7050	95,8441
1491,6692	96,0615
1492,6334	96,2442
1493,5977	96,3561
1494,5619	96,3832
1495,5261	96,3248
1496,4904	96,2079
1497,4546	96,1005
1498,4188	96,0741
1499,3831	96,1364
1500,3473	96,2391
1501,3115	96,3328
1502,2758	96,3872
1503,2400	96,3808
1504,2042	96,2826
1505,1685	96,0422
1506,1327	95,6289
1507,0969	95,1883
1508,0612	95,02
1509,0254	95,133
1509,9896	95,3237
1510,9539	95,4802
1511,9181	95,5737
1512,8823	95,5979
1513,8466	95,5486
1514,8108	95,4277
1515,7750	95,2521
1516,7393	95,0528
1517,7035	94,8553
1518,6677	94,6611
1519,6320	94,4536
1520,5962	94,2289
1521,5604	94,0185
1522,5247	93,8704
1523,4889	93,8045
1524,4531	93,8028
1525,4174	93,8338
1526,3816	93,8745
1527,3458	93,9135
1528,3101	93,9435
1529,2743	93,9528
1530,2385	93,9226
1531,2028	93,8332
1532,1670	93,6823
1533,1312	93,5066
1534,0955	93,3688
1535,0597	93,3037
1536,0239	93,2911
1536,9882	93,2762
1537,9524	93,1863
1538,9166	92,9286
1539,8809	92,4415
1540,8451	91,8856
1541,8093	91,6201
1542,7736	91,7059
1543,7378	91,9404
1544,7020	92,1816
1545,6663	92,3794
1546,6305	92,5198
1547,5947	92,599
1548,5590	92,6169
1549,5232	92,5776
1550,4874	92,4915
1551,4517	92,3772
1552,4159	92,2554
1553,3801	92,1388
1554,3444	92,0222
1555,3086	91,8804
1556,2728	91,6685
1557,2371	91,3456
1558,2013	90,9839
1559,1655	90,8159
1560,1298	90,9039
1561,0940	91,083
1562,0582	91,2396
1563,0225	91,3439
1563,9867	91,3944
1564,9509	91,3934
1565,9152	91,342
1566,8794	91,2432
1567,8436	91,111
1568,8079	90,9787
1569,7721	90,8853
1570,7363	90,8427
1571,7006	90,8274
1572,6648	90,801
1573,6290	90,7281
1574,5933	90,5872
1575,5575	90,3945
1576,5217	90,2218
1577,4860	90,1421
1578,4502	90,1492
1579,4144	90,184
1580,3787	90,1971
1581,3429	90,1655
1582,3071	90,0862
1583,2714	89,9697
1584,2356	89,8324
1585,1998	89,6867
1586,1641	89,5368
1587,1283	89,3816
1588,0925	89,2214
1589,0568	89,0592
1590,0210	88,8983
1590,9852	88,7373
1591,9495	88,5704
1592,9137	88,3923
1593,8779	88,2032
1594,8422	88,0095
1595,8064	87,8191
1596,7706	87,6343
1597,7349	87,4499
1598,6991	87,2561
1599,6633	87,0449
1600,6276	86,8141
1601,5918	86,5685
1602,5560	86,3174
1603,5203	86,0698
1604,4845	85,8289
1605,4487	85,591
1606,4130	85,348
1607,3772	85,0927
1608,3414	84,8244
1609,3057	84,5517
1610,2699	84,2872
1611,2341	84,0359
1612,1984	83,7872
1613,1626	83,5149
1614,1268	83,1815
1615,0911	82,7567
1616,0553	82,2615
1617,0195	81,7909
1617,9838	81,4309
1618,9480	81,1724
1619,9122	80,9454
1620,8765	80,6843
1621,8407	80,3582
1622,8049	79,985
1623,7692	79,6256
1624,7334	79,3366
1625,6976	79,1195
1626,6619	78,9306
1627,6261	78,7286
1628,5903	78,5048
1629,5546	78,2766
1630,5188	78,0604
1631,4830	77,8527
1632,4473	77,6312
1633,4115	77,3674
1634,3757	77,0529
1635,3400	76,7445
1636,3042	76,5554
1637,2684	76,5225
1638,2327	76,5657
1639,1969	76,6061
1640,1611	76,6146
1641,1254	76,5882
1642,0896	76,5291
1643,0538	76,4392
1644,0181	76,3274
1644,9823	76,2255
1645,9465	76,196
1646,9108	76,2827
1647,8750	76,4396
1648,8392	76,5767
1649,8035	76,6507
1650,7677	76,6752
1651,7319	76,7168
1652,6962	76,9055
1653,6604	77,3174
1654,6246	77,7956
1655,5889	78,1681
1656,5531	78,4269
1657,5173	78,6184
1658,4816	78,7775
1659,4458	78,9318
1660,4100	79,116
1661,3743	79,3696
1662,3385	79,7039
1663,3027	80,0717
1664,2670	80,4017
1665,2312	80,6554
1666,1954	80,8391
1667,1597	80,9876
1668,1239	81,1518
1669,0881	81,3785
1670,0524	81,6738
1671,0166	81,9936
1671,9808	82,2972
1672,9451	82,5865
1673,9093	82,8896
1674,8735	83,2259
1675,8378	83,5816
1676,8020	83,9158
1677,7662	84,1924
1678,7305	84,4009
1679,6947	84,5495
1680,6589	84,6553
1681,6232	84,7508
1682,5874	84,9005
1683,5516	85,1852
1684,5159	85,6043
1685,4801	86,048
1686,4443	86,4378
1687,4086	86,778
1688,3728	87,0968
1689,3370	87,4067
1690,3013	87,699
1691,2655	87,9564
1692,2297	88,1659
1693,1940	88,3252
1694,1582	88,4408
1695,1224	88,5257
1696,0867	88,5997
1697,0509	88,6966
1698,0151	88,8607
1698,9794	89,116
1699,9436	89,4306
1700,9078	89,7355
1701,8721	89,9809
1702,8363	90,165
1703,8005	90,3219
1704,7648	90,4969
1705,7290	90,7197
1706,6932	90,9846
1707,6575	91,2551
1708,6217	91,4944
1709,5859	91,6866
1710,5502	91,8323
1711,5144	91,9347
1712,4786	91,9907
1713,4429	91,9941
1714,4071	91,9491
1715,3713	91,8968
1716,3356	91,9284
1717,2998	92,115
1718,2640	92,405
1719,2283	92,6905
1720,1925	92,923
1721,1567	93,1085
1722,1210	93,2664
1723,0852	93,41
1724,0494	93,5428
1725,0137	93,662
1725,9779	93,7633
1726,9421	93,8439
1727,9064	93,9014
1728,8706	93,9303
1729,8348	93,9225
1730,7991	93,8722
1731,7633	93,7891
1732,7275	93,7168
1733,6918	93,7214
1734,6560	93,8275
1735,6202	93,9908
1736,5845	94,1529
1737,5487	94,2833
1738,5129	94,3745
1739,4772	94,4311
1740,4414	94,4644
1741,4056	94,4897
1742,3699	94,5183
1743,3341	94,5499
1744,2983	94,5745
1745,2626	94,5781
1746,2268	94,5522
1747,1910	94,5018
1748,1553	94,4544
1749,1195	94,4549
1750,0837	94,5335
1751,0480	94,673
1752,0122	94,8265
1752,9764	94,9589
1753,9407	95,0606
1754,9049	95,1378
1755,8691	95,2007
1756,8334	95,2552
1757,7976	95,2993
1758,7618	95,327
1759,7261	95,3367
1760,6903	95,3386
1761,6545	95,3516
1762,6188	95,3905
1763,5830	95,4536
1764,5472	95,524
1765,5115	95,5806
1766,4757	95,6067
1767,4399	95,5924
1768,4042	95,5355
1769,3684	95,4441
1770,3326	95,3415
1771,2969	95,2694
1772,2611	95,2712
1773,2253	95,3574
1774,1896	95,4954
1775,1538	95,6405
1776,1180	95,7637
1777,0823	95,8539
1778,0465	95,911
1779,0107	95,9421
1779,9750	95,9594
1780,9392	95,9783
1781,9034	96,0112
1782,8677	96,0646
1783,8319	96,1371
1784,7961	96,2201
1785,7604	96,2986
1786,7246	96,3554
1787,6888	96,3761
1788,6531	96,3519
1789,6173	96,2845
1790,5815	96,1936
1791,5458	96,1231
1792,5100	96,1208
1793,4742	96,1943
1794,4385	96,302
1795,4027	96,3956
1796,3669	96,4497
1797,3312	96,4622
1798,2954	96,4481
1799,2596	96,4334
1800,2239	96,4467
1801,1881	96,5028
1802,1523	96,5931
1803,1166	96,6943
1804,0808	96,7839
1805,0450	96,8494
1806,0093	96,8883
1806,9735	96,9045
1807,9377	96,9072
1808,9020	96,9097
1809,8662	96,9277
1810,8304	96,9729
1811,7947	97,0465
1812,7589	97,1373
1813,7231	97,2281
1814,6874	97,3031
1815,6516	97,3516
1816,6158	97,3709
1817,5801	97,3668
1818,5443	97,3509
1819,5085	97,3342
1820,4728	97,3215
1821,4370	97,312
1822,4012	97,3033
1823,3655	97,2951
1824,3297	97,2887
1825,2939	97,2824
1826,2582	97,2692
1827,2224	97,2418
1828,1866	97,2019
1829,1509	97,1685
1830,1151	97,1702
1831,0793	97,2232
1832,0436	97,3161
1833,0078	97,4221
1833,9720	97,5179
1834,9363	97,5935
1835,9005	97,6512
1836,8647	97,6998
1837,8290	97,7453
1838,7932	97,7829
1839,7574	97,7987
1840,7217	97,7766
1841,6859	97,7079
1842,6501	97,6022
1843,6144	97,4969
1844,5786	97,4435
1845,5428	97,469
1846,5071	97,5543
1847,4713	97,6596
1848,4355	97,7547
1849,3998	97,8268
1850,3640	97,875
1851,3282	97,9026
1852,2925	97,9141
1853,2567	97,9135
1854,2209	97,9062
1855,1852	97,8999
1856,1494	97,9037
1857,1136	97,9255
1858,0779	97,9691
1859,0421	98,0319
1860,0063	98,104
1860,9706	98,1702
1861,9348	98,2134
1862,8990	98,2188
1863,8633	98,1776
1864,8275	98,0876
1865,7917	97,958
1866,7560	97,8161
1867,7202	97,7118
1868,6844	97,6969
1869,6487	97,7816
1870,6129	97,9222
1871,5771	98,059
1872,5414	98,1526
1873,5056	98,1904
1874,4698	98,1814
1875,4341	98,1487
1876,3983	98,1204
1877,3625	98,1158
1878,3268	98,1365
1879,2910	98,1687
1880,2552	98,197
1881,2195	98,2173
1882,1837	98,239
1883,1479	98,2746
1884,1122	98,3264
1885,0764	98,3806
1886,0406	98,4148
1887,0049	98,4122
1887,9691	98,3738
1888,9333	98,3187
1889,8976	98,2706
1890,8618	98,2397
1891,8260	98,2198
1892,7903	98,2014
1893,7545	98,1866
1894,7188	98,1911
1895,6830	98,2312
1896,6472	98,3063
1897,6115	98,3921
1898,5757	98,4542
1899,5399	98,4694
1900,5042	98,4386
1901,4684	98,3844
1902,4326	98,3375
1903,3969	98,3199
1904,3611	98,3354
1905,3253	98,3731
1906,2896	98,4169
1907,2538	98,4539
1908,2180	98,4766
1909,1823	98,4823
1910,1465	98,4726
1911,1107	98,4536
1912,0750	98,4339
1913,0392	98,4203
1914,0034	98,4132
1914,9677	98,4043
1915,9319	98,3803
1916,8961	98,3315
1917,8604	98,2848
1918,8246	98,244
1919,7888	98,2357
1920,7531	98,2728
1921,7173	98,3465
1922,6815	98,4322
1923,6458	98,5039
1924,6100	98,5515
1925,5742	98,5849
1926,5385	98,6228
1927,5027	98,6748
1928,4669	98,7328
1929,4312	98,7755
1930,3954	98,7839
1931,3596	98,7567
1932,3239	98,7147
1933,2881	98,6875
1934,2523	98,6936
1935,2166	98,7291
1936,1808	98,7717
1937,1450	98,7966
1938,1093	98,7906
1939,0735	98,755
1940,0377	98,6985
1941,0020	98,6301
1941,9662	98,5574
1942,9304	98,4927
1943,8947	98,4556
1944,8589	98,4664
1945,8231	98,5332
1946,7874	98,6438
1947,7516	98,7679
1948,7158	98,8686
1949,6801	98,9195
1950,6443	98,9179
1951,6085	98,8846
1952,5728	98,8492
1953,5370	98,8318
1954,5012	98,8335
1955,4655	98,8419
1956,4297	98,8469
1957,3939	98,8542
1958,3582	98,8862
1959,3224	98,9657
1960,2866	99,0915
1961,2509	99,2225
1962,2151	99,2879
1963,1793	99,2224
1964,1436	99,0074
1965,1078	98,6949
1966,0720	98,3968
1967,0363	98,2343
1968,0005	98,2663
1968,9647	98,4523
1969,9290	98,6838
1970,8932	98,856
1971,8574	98,9189
1972,8217	98,8799
1973,7859	98,7685
1974,7501	98,5966
1975,7144	98,3503
1976,6786	98,0209
1977,6428	97,646
1978,6071	97,3109
1979,5713	97,1003
1980,5355	97,0439
1981,4998	97,1064
1982,4640	97,222
1983,4282	97,3403
1984,3925	97,4504
1985,3567	97,5713
1986,3209	97,7215
1987,2852	97,8911
1988,2494	98,039
1989,2136	98,1177
1990,1779	98,1077
1991,1421	98,0388
1992,1063	97,979
1993,0706	97,9931
1994,0348	98,101
1994,9990	98,2685
1995,9633	98,4297
1996,9275	98,5218
1997,8917	98,5145
1998,8560	98,4294
1999,8202	98,3361
2000,7844	98,3243
2001,7487	98,4611
2002,7129	98,7553
2003,6771	99,1462
2004,6414	99,5175
2005,6056	99,7362
2006,5698	99,7043
2007,5341	99,4027
2008,4983	98,9014
2009,4625	98,3304
2010,4268	97,8337
2011,3910	97,5306
2012,3552	97,4909
2013,3195	97,7151
2014,2837	98,1166
2015,2479	98,525
2016,2122	98,7397
2017,1764	98,633
2018,1406	98,239
2019,1049	97,7425
2020,0691	97,3692
2021,0333	97,2626
2021,9976	97,4246
2022,9618	97,7349
2023,9260	98,0271
2024,8903	98,1789
2025,8545	98,1642
2026,8187	98,0399
2027,7830	97,8888
2028,7472	97,7668
2029,7114	97,6865
2030,6757	97,6323
2031,6399	97,5838
2032,6041	97,5252
2033,5684	97,4439
2034,5326	97,3269
2035,4968	97,1666
2036,4611	96,9699
2037,4253	96,7629
2038,3895	96,5877
2039,3538	96,4952
2040,3180	96,5344
2041,2822	96,7363
2042,2465	97,0918
2043,2107	97,5359
2044,1749	97,9532
2045,1392	98,2128
2046,1034	98,2248
2047,0676	97,9946
2048,0320	97,6353
2048,9961	97,3135
2049,9604	97,1583
2050,9246	97,1988
2051,8889	97,3675
2052,8530	97,5495
2053,8174	97,6426
2054,7815	97,6012
2055,7458	97,4489
2056,7100	97,257
2057,6743	97,1035
2058,6384	97,0363
2059,6028	97,0576
2060,5669	97,1308
2061,5313	97,201
2062,4954	97,2178
2063,4597	97,1557
2064,4238	97,0245
2065,3882	96,8647
2066,3523	96,7291
2067,3167	96,6585
2068,2808	96,6665
2069,2451	96,7379
2070,2092	96,8384
2071,1736	96,9292
2072,1377	96,9806
2073,1021	96,9804
2074,0662	96,9341
2075,0305	96,8589
2075,9946	96,7743
2076,9590	96,6944
2077,9231	96,6273
2078,8875	96,5792
2079,8516	96,5599
2080,8159	96,5831
2081,7800	96,657
2082,7444	96,7735
2083,7085	96,9034
2084,6729	97,0057
2085,6370	97,0485
2086,6013	97,0293
2087,5654	96,9781
2088,5298	96,9399
2089,4939	96,9461
2090,4583	96,9929
2091,4224	97,0431
2092,3867	97,0501
2093,3508	96,9884
2094,3152	96,8714
2095,2793	96,7446
2096,2437	96,6592
2097,2078	96,6432
2098,1721	96,6869
2099,1362	96,7531
2100,1006	96,7989
2101,0647	96,7982
2102,0291	96,7498
2102,9932	96,6739
2103,9575	96,5991
2104,9216	96,5502
2105,8860	96,5388
2106,8501	96,5608
2107,8145	96,5987
2108,7786	96,63
2109,7429	96,6366
2110,7070	96,613
2111,6714	96,5686
2112,6355	96,5217
2113,5999	96,4898
2114,5640	96,4804
2115,5283	96,4887
2116,4924	96,5024
2117,4568	96,5115
2118,4209	96,5149
2119,3853	96,522
2120,3494	96,5464
2121,3137	96,596
2122,2778	96,6653
2123,2422	96,733
2124,2063	96,7702
2125,1707	96,7552
2126,1348	96,6892
2127,0991	96,6024
2128,0632	96,5452
2129,0276	96,5632
2129,9917	96,6688
2130,9561	96,8241
2131,9202	96,9489
2132,8845	96,9555
2133,8486	96,7984
2134,8130	96,5097
2135,7771	96,1912
2136,7415	95,9636
2137,7056	95,9007
2138,6699	95,9926
2139,6340	96,1578
2140,5984	96,2919
2141,5625	96,3246
2142,5269	96,2531
2143,4910	96,135
2144,4553	96,0478
2145,4194	96,0392
2146,3838	96,0949
2147,3479	96,1438
2148,3123	96,0985
2149,2764	95,9107
2150,2407	95,6079
2151,2048	95,2897
2152,1692	95,0814
2153,1333	95,0702
2154,0977	95,2556
2155,0618	95,5343
2156,0261	95,727
2156,9902	95,6473
2157,9546	95,2052
2158,9187	94,4898
2159,8831	93,7395
2160,8472	93,1923
2161,8115	92,9528
2162,7756	92,9801
2163,7400	93,16
2164,7041	93,3829
2165,6685	93,5906
2166,6326	93,7852
2167,5969	94,0065
2168,5610	94,2922
2169,5254	94,6436
2170,4895	95,0141
2171,4539	95,323
2172,4180	95,488
2173,3823	95,4649
2174,3464	95,2726
2175,3108	94,9907
2176,2749	94,7234
2177,2393	94,5497
2178,2034	94,4882
2179,1677	94,494
2180,1318	94,4894
2181,0962	94,4089
2182,0603	94,236
2183,0247	94,009
2183,9888	93,7946
2184,9531	93,6486
2185,9172	93,5892
2186,8816	93,5981
2187,8457	93,6409
2188,8101	93,6909
2189,7742	93,741
2190,7385	93,7985
2191,7026	93,8704
2192,6670	93,9511
2193,6311	94,023
2194,5955	94,0687
2195,5596	94,0861
2196,5239	94,0932
2197,4880	94,1172
2198,4524	94,1736
2199,4165	94,2492
2200,3809	94,3036
2201,3450	94,2909
2202,3093	94,1902
2203,2734	94,0245
2204,2378	93,8545
2205,2019	93,749
2206,1663	93,7513
2207,1304	93,8593
2208,0947	94,0294
2209,0588	94,1988
2210,0232	94,313
2210,9873	94,3441
2211,9517	94,2951
2212,9158	94,1918
2213,8801	94,0684
2214,8442	93,9551
2215,8086	93,8699
2216,7727	93,8163
2217,7371	93,7876
2218,7012	93,7749
2219,6655	93,773
2220,6296	93,7815
2221,5940	93,7975
2222,5581	93,8103
2223,5225	93,8002
2224,4866	93,7479
2225,4509	93,6458
2226,4150	93,5041
2227,3794	93,3473
2228,3435	93,2047
2229,3079	93,1008
2230,2720	93,0532
2231,2363	93,0721
2232,2004	93,1581
2233,1648	93,2958
2234,1289	93,4502
2235,0933	93,5738
2236,0574	93,6262
2237,0217	93,596
2237,9858	93,5089
2238,9502	93,4132
2239,9143	93,3507
2240,8787	93,3319
2241,8428	93,3322
2242,8071	93,309
2243,7712	93,23
2244,7356	93,0933
2245,6997	92,9271
2246,6641	92,7746
2247,6282	92,6715
2248,5925	92,6321
2249,5566	92,6461
2250,5210	92,6848
2251,4851	92,7131
2252,4495	92,7004
2253,4136	92,6298
2254,3779	92,5024
2255,3420	92,3356
2256,3064	92,1547
2257,2705	91,9832
2258,2349	91,8359
2259,1990	91,7173
2260,1633	91,6251
2261,1274	91,5529
2262,0918	91,4924
2263,0559	91,4329
2264,0203	91,3639
2264,9844	91,2788
2265,9487	91,181
2266,9128	91,0847
2267,8772	91,0099
2268,8413	90,9704
2269,8057	90,9651
2270,7698	90,9749
2271,7341	90,9719
2272,6982	90,9346
2273,6626	90,8618
2274,6267	90,7754
2275,5911	90,711
2276,5552	90,7005
2277,5195	90,7565
2278,4836	90,8662
2279,4480	90,9963
2280,4121	91,1056
2281,3765	91,158
2282,3406	91,13
2283,3049	91,0121
2284,2690	90,806
2285,2334	90,5231
2286,1975	90,182
2287,1619	89,8053
2288,1260	89,4145
2289,0903	89,0239
2290,0544	88,6381
2291,0188	88,2543
2291,9829	87,8682
2292,9473	87,4792
2293,9114	87,0908
2294,8757	86,7069
2295,8398	86,327
2296,8042	85,9454
2297,7683	85,5544
2298,7327	85,1498
2299,6968	84,7328
2300,6611	84,3061
2301,6252	83,8653
2302,5896	83,3929
2303,5537	82,8592
2304,5181	82,2323
2305,4822	81,4937
2306,4465	80,6517
2307,4106	79,746
2308,3750	78,84
2309,3391	78,0015
2310,3035	77,2795
2311,2676	76,6855
2312,2319	76,1863
2313,1960	75,7151
2314,1604	75,1937
2315,1245	74,5571
2316,0889	73,767
2317,0530	72,8144
2318,0173	71,7138
2318,9814	70,5002
2319,9458	69,2281
2320,9099	67,9688
2321,8743	66,7962
2322,8384	65,7624
2323,8027	64,8785
2324,7668	64,118
2325,7312	63,4394
2326,6953	62,8106
2327,6597	62,2224
2328,6238	61,6868
2329,5881	61,2214
2330,5522	60,831
2331,5166	60,4982
2332,4807	60,1917
2333,4451	59,8821
2334,4092	59,5543
2335,3735	59,2083
2336,3376	58,853
2337,3020	58,4958
2338,2661	58,1333
2339,2305	57,7542
2340,1946	57,3731
2341,1589	57,0941
2342,1230	57,1601
2343,0874	57,8878
2344,0515	59,4294
2345,0159	61,5451
2345,9800	63,7
2346,9443	65,3933
2347,9084	66,3432
2348,8728	66,451
2349,8369	65,7079
2350,8013	64,1559
2351,7654	61,9159
2352,7297	59,2422
2353,6938	56,5141
2354,6582	54,091
2355,6223	52,1319
2356,5867	50,5922
2357,5508	49,3956
2358,5151	48,5558
2359,4792	48,1324
2360,4436	48,1213
2361,4077	48,4317
2362,3721	48,9689
2363,3362	49,7114
2364,3005	50,7016
2365,2646	51,9782
2366,2290	53,5267
2367,1931	55,29
2368,1575	57,2111
2369,1216	59,2589
2370,0859	61,4212
2371,0500	63,681
2372,0144	66,0025
2372,9785	68,3335
2373,9429	70,6193
2374,9070	72,8171
2375,8713	74,9026
2376,8354	76,8701
2377,7998	78,7259
2378,7639	80,4811
2379,7283	82,1449
2380,6924	83,7213
2381,6567	85,2068
2382,6208	86,5889
2383,5852	87,8471
2384,5493	88,9553
2385,5137	89,8885
2386,4778	90,6311
2387,4421	91,1842
2388,4063	91,5679
2389,3706	91,8167
2390,3347	91,9706
2391,2991	92,0664
2392,2632	92,1319
2393,2275	92,1851
2394,1917	92,2364
2395,1560	92,2892
2396,1201	92,3417
2397,0845	92,3882
2398,0486	92,4221
2399,0129	92,4407
2399,9771	92,447
2400,9414	92,4495
2401,9055	92,458
2402,8699	92,4787
2403,8340	92,513
2404,7983	92,5583
2405,7625	92,6106
2406,7268	92,6668
2407,6909	92,7238
2408,6553	92,7772
2409,6194	92,8214
2410,5837	92,8516
2411,5479	92,8663
2412,5122	92,8701
2413,4763	92,8721
2414,4407	92,8826
2415,4048	92,9085
2416,3691	92,9505
2417,3333	93,0033
2418,2976	93,0586
2419,2617	93,1099
2420,2261	93,1556
2421,1902	93,1988
2422,1545	93,2452
2423,1187	93,298
2424,0830	93,3563
2425,0471	93,4147
2426,0115	93,466
2426,9756	93,5044
2427,9399	93,5284
2428,9041	93,5408
2429,8684	93,549
2430,8325	93,5624
2431,7969	93,59
2432,7610	93,6367
2433,7253	93,7015
2434,6895	93,7769
2435,6538	93,8521
2436,6179	93,9176
2437,5823	93,9685
2438,5464	94,0051
2439,5107	94,0324
2440,4749	94,0572
2441,4392	94,0868
2442,4033	94,1275
2443,3677	94,182
2444,3318	94,2482
2445,2961	94,3176
2446,2603	94,3797
2447,2246	94,4273
2448,1887	94,4623
2449,1531	94,4953
2450,1172	94,5396
2451,0815	94,6019
2452,0457	94,6773
2453,0100	94,7502
2453,9741	94,8042
2454,9385	94,8316
2455,9026	94,8388
2456,8669	94,8435
2457,8311	94,8648
2458,7954	94,9131
2459,7595	94,9848
2460,7239	95,0662
2461,6880	95,1415
2462,6523	95,2027
2463,6165	95,2528
2464,5808	95,3021
2465,5449	95,3593
2466,5093	95,425
2467,4734	95,4916
2468,4377	95,5502
2469,4019	95,5971
2470,3662	95,636
2471,3303	95,6737
2472,2947	95,713
2473,2588	95,7511
2474,2231	95,7837
2475,1873	95,8124
2476,1516	95,8475
2477,1157	95,9024
2478,0801	95,9842
2479,0442	96,086
2480,0085	96,1886
2480,9727	96,2701
2481,9370	96,3173
2482,9011	96,3312
2483,8655	96,3248
2484,8296	96,3153
2485,7939	96,3169
2486,7581	96,3364
2487,7224	96,3726
2488,6865	96,4194
2489,6509	96,4696
2490,6150	96,519
2491,5793	96,5694
2492,5435	96,6272
2493,5078	96,6986
2494,4719	96,784
2495,4363	96,876
2496,4004	96,963
2497,3647	97,0362
2498,3289	97,0947
2499,2932	97,1447
2500,2573	97,1928
2501,2217	97,2406
2502,1858	97,2823
2503,1501	97,3113
2504,1143	97,3262
2505,0786	97,335
2506,0427	97,3515
2507,0071	97,3879
2507,9712	97,4481
2508,9355	97,5261
2509,8997	97,6095
2510,8640	97,6868
2511,8281	97,7526
2512,7925	97,8093
2513,7566	97,8635
2514,7209	97,9204
2515,6851	97,9787
2516,6494	98,0301
2517,6135	98,0648
2518,5779	98,0793
2519,5420	98,0818
2520,5063	98,0903
2521,4705	98,1226
2522,4348	98,1842
2523,3989	98,2638
2524,3633	98,337
2525,3274	98,381
2526,2917	98,3865
2527,2559	98,363
2528,2202	98,3325
2529,1843	98,3171
2530,1487	98,329
2531,1128	98,3681
2532,0771	98,4258
2533,0413	98,4915
2534,0056	98,5557
2534,9697	98,6108
2535,9341	98,6502
2536,8982	98,6696
2537,8625	98,669
2538,8267	98,6553
2539,7910	98,6403
2540,7551	98,6354
2541,7195	98,6462
2542,6836	98,6697
2543,6479	98,6959
2544,6121	98,7146
2545,5764	98,7207
2546,5405	98,718
2547,5049	98,7155
2548,4690	98,723
2549,4333	98,7444
2550,3975	98,7763
2551,3618	98,8097
2552,3259	98,8352
2553,2903	98,8485
2554,2544	98,8528
2555,2188	98,8561
2556,1829	98,8663
2557,1472	98,886
2558,1113	98,9093
2559,0757	98,9034
2560,0398	98,884
2561,0042	98,8482
2561,9683	98,8001
2562,9326	98,7485
2563,8967	98,7013
2564,8611	98,662
2565,8252	98,6291
2566,7896	98,5986
2567,7537	98,5676
2568,7180	98,5361
2569,6821	98,5071
2570,6465	98,4847
2571,6106	98,4717
2572,5750	98,468
2573,5391	98,4696
2574,5034	98,4688
2575,4675	98,4561
2576,4319	98,4244
2577,3960	98,3738
2578,3604	98,3134
2579,3245	98,2591
2580,2888	98,2265
2581,2529	98,2217
2582,2173	98,2369
2583,1814	98,253
2584,1458	98,2488
2585,1099	98,212
2586,0742	98,1442
2587,0383	98,0584
2588,0027	97,9705
2588,9668	97,8913
2589,9312	97,8237
2590,8953	97,7665
2591,8596	97,7181
2592,8237	97,6792
2593,7881	97,6497
2594,7522	97,6262
2595,7166	97,6006
2596,6807	97,5653
2597,6450	97,5173
2598,6091	97,4612
2599,5735	97,4051
2600,5376	97,3541
2601,5020	97,3066
2602,4661	97,2552
2603,4304	97,194
2604,3945	97,1244
2605,3589	97,0559
2606,3230	97,0003
2607,2874	96,9633
2608,2515	96,9403
2609,2158	96,9181
2610,1799	96,8827
2611,1443	96,8268
2612,1084	96,7532
2613,0728	96,6718
2614,0369	96,5932
2615,0012	96,5232
2615,9653	96,4604
2616,9297	96,3985
2617,8938	96,3324
2618,8582	96,2618
2619,8223	96,1927
2620,7866	96,1344
2621,7507	96,0942
2622,7151	96,0722
2623,6792	96,0604
2624,6436	96,0457
2625,6077	96,0155
2626,5720	95,9633
2627,5361	95,89
2628,5005	95,8027
2629,4646	95,7104
2630,4290	95,6209
2631,3931	95,5393
2632,3574	95,4681
2633,3215	95,408
2634,2859	95,3573
2635,2500	95,3116
2636,2144	95,2639
2637,1785	95,2066
2638,1428	95,1346
2639,1069	95,0491
2640,0713	94,9564
2641,0354	94,8655
2641,9998	94,7836
2642,9639	94,7125
2643,9282	94,6497
2644,8923	94,591
2645,8567	94,5337
2646,8208	94,4776
2647,7852	94,4234
2648,7493	94,3706
2649,7136	94,3171
2650,6777	94,2612
2651,6421	94,2029
2652,6062	94,1449
2653,5706	94,0897
2654,5347	94,038
2655,4990	93,9875
2656,4631	93,9353
2657,4275	93,8807
2658,3916	93,8271
2659,3560	93,7795
2660,3201	93,7413
2661,2844	93,7109
2662,2485	93,6829
2663,2129	93,6507
2664,1770	93,61
2665,1414	93,5604
2666,1055	93,5039
2667,0698	93,4429
2668,0339	93,3784
2668,9983	93,3111
2669,9624	93,2421
2670,9268	93,1739
2671,8909	93,1089
2672,8552	93,0487
2673,8193	92,9928
2674,7837	92,9389
2675,7478	92,8843
2676,7122	92,8272
2677,6763	92,7667
2678,6406	92,703
2679,6047	92,6361
2680,5691	92,5656
2681,5332	92,4915
2682,4976	92,4146
2683,4617	92,3379
2684,4260	92,2655
2685,3901	92,2018
2686,3545	92,1486
2687,3186	92,1034
2688,2830	92,0603
2689,2471	92,0119
2690,2114	91,9532
2691,1755	91,8843
2692,1399	91,8102
2693,1040	91,7381
2694,0684	91,6731
2695,0325	91,616
2695,9968	91,5632
2696,9609	91,5092
2697,9253	91,4499
2698,8894	91,3839
2699,8538	91,3134
2700,8179	91,2416
2701,7822	91,1722
2702,7463	91,1075
2703,7107	91,0486
2704,6748	90,9954
2705,6392	90,9463
2706,6033	90,8986
2707,5676	90,8486
2708,5317	90,7932
2709,4961	90,7314
2710,4602	90,665
2711,4246	90,598
2712,3887	90,5342
2713,3530	90,4755
2714,3171	90,4206
2715,2815	90,3659
2716,2456	90,3077
2717,2100	90,244
2718,1741	90,1755
2719,1384	90,1045
2720,1025	90,0341
2721,0669	89,9668
2722,0310	89,9045
2722,9954	89,8483
2723,9595	89,7985
2724,9238	89,7539
2725,8879	89,7123
2726,8523	89,6701
2727,8164	89,6247
2728,7808	89,5749
2729,7449	89,522
2730,7092	89,4678
2731,6733	89,4142
2732,6377	89,3617
2733,6018	89,3101
2734,5662	89,2591
2735,5303	89,2098
2736,4946	89,1636
2737,4587	89,1216
2738,4231	89,0821
2739,3872	89,0417
2740,3516	88,9956
2741,3157	88,941
2742,2800	88,8786
2743,2441	88,8125
2744,2085	88,7485
2745,1726	88,6913
2746,1370	88,6427
2747,1011	88,6014
2748,0654	88,5643
2749,0295	88,5282
2749,9939	88,4911
2750,9580	88,4521
2751,9224	88,4102
2752,8865	88,3635
2753,8508	88,3106
2754,8149	88,2509
2755,7793	88,1871
2756,7434	88,1242
2757,7078	88,0676
2758,6719	88,0205
2759,6362	87,9821
2760,6003	87,9485
2761,5647	87,9154
2762,5288	87,881
2763,4932	87,8465
2764,4573	87,8144
2765,4216	87,7859
2766,3857	87,7585
2767,3501	87,7278
2768,3142	87,6892
2769,2786	87,6412
2770,2427	87,5858
2771,2070	87,5279
2772,1711	87,4729
2773,1355	87,4258
2774,0996	87,3894
2775,0640	87,3634
2776,0281	87,3438
2776,9924	87,3231
2777,9565	87,2932
2778,9209	87,2492
2779,8850	87,1932
2780,8494	87,1331
2781,8135	87,0791
2782,7778	87,0378
2783,7419	87,0089
2784,7063	86,9858
2785,6704	86,9607
2786,6348	86,9282
2787,5989	86,8883
2788,5632	86,844
2789,5273	86,7991
2790,4917	86,7557
2791,4558	86,714
2792,4202	86,6733
2793,3843	86,6327
2794,3486	86,5907
2795,3127	86,5458
2796,2771	86,4966
2797,2412	86,4433
2798,2056	86,3885
2799,1697	86,3363
2800,1340	86,2907
2801,0981	86,2539
2802,0625	86,2252
2803,0266	86,2021
2803,9910	86,1811
2804,9551	86,1597
2805,9194	86,1359
2806,8835	86,109
2807,8479	86,0785
2808,8120	86,0442
2809,7764	86,0066
2810,7405	85,9662
2811,7048	85,9237
2812,6689	85,8792
2813,6333	85,8328
2814,5974	85,7842
2815,5618	85,7338
2816,5259	85,6831
2817,4902	85,6345
2818,4543	85,5906
2819,4187	85,5529
2820,3828	85,521
2821,3472	85,4927
2822,3113	85,4645
2823,2756	85,4343
2824,2397	85,4023
2825,2041	85,3706
2826,1682	85,3419
2827,1326	85,3165
2828,0967	85,2912
2829,0610	85,2602
2830,0251	85,2177
2830,9895	85,1615
2831,9536	85,0949
2832,9180	85,0259
2833,8821	84,9635
2834,8464	84,9138
2835,8105	84,8779
2836,7749	84,8517
2837,7390	84,8288
2838,7034	84,8038
2839,6675	84,7742
2840,6318	84,7408
2841,5959	84,7057
2842,5603	84,6708
2843,5244	84,6366
2844,4888	84,6029
2845,4529	84,5693
2846,4172	84,5363
2847,3813	84,5044
2848,3457	84,4735
2849,3098	84,4423
2850,2742	84,4085
2851,2383	84,3698
2852,2026	84,3248
2853,1667	84,2732
2854,1311	84,2151
2855,0952	84,1508
2856,0596	84,0808
2857,0237	84,0064
2857,9880	83,9301
2858,9521	83,8554
2859,9165	83,7848
2860,8806	83,7187
2861,8450	83,6545
2862,8091	83,5879
2863,7734	83,5153
2864,7375	83,4358
2865,7019	83,3519
2866,6660	83,2685
2867,6304	83,1907
2868,5945	83,122
2869,5588	83,0636
2870,5229	83,0139
2871,4873	82,9698
2872,4514	82,9269
2873,4158	82,8814
2874,3799	82,8307
2875,3442	82,7747
2876,3083	82,7162
2877,2727	82,6586
2878,2368	82,6051
2879,2012	82,5568
2880,1653	82,5125
2881,1296	82,4703
2882,0938	82,4288
2883,0581	82,3881
2884,0222	82,3495
2884,9866	82,3144
2885,9507	82,2841
2886,9150	82,2592
2887,8792	82,2391
2888,8435	82,222
2889,8076	82,2048
2890,7720	82,1843
2891,7361	82,1582
2892,7004	82,1261
2893,6646	82,089
2894,6289	82,0478
2895,5930	82,0026
2896,5574	81,9534
2897,5215	81,9019
2898,4858	81,8533
2899,4500	81,8147
2900,4143	81,7913
2901,3784	81,784
2902,3428	81,7885
2903,3069	81,7991
2904,2712	81,8117
2905,2354	81,8254
2906,1997	81,8406
2907,1638	81,8557
2908,1282	81,8667
2909,0923	81,8704
2910,0566	81,8687
2911,0208	81,8691
2911,9851	81,8807
2912,9492	81,9077
2913,9136	81,9447
2914,8777	81,9788
2915,8420	81,9966
2916,8062	81,9916
2917,7705	81,9675
2918,7346	81,934
2919,6990	81,9003
2920,6631	81,8705
2921,6274	81,844
2922,5916	81,8181
2923,5559	81,7918
2924,5200	81,7663
2925,4844	81,7438
2926,4485	81,7254
2927,4128	81,7108
2928,3770	81,6985
2929,3413	81,6866
2930,3054	81,6733
2931,2698	81,6578
2932,2339	81,6407
2933,1982	81,6241
2934,1624	81,6111
2935,1267	81,6041
2936,0908	81,6032
2937,0552	81,6047
2938,0193	81,6034
2938,9836	81,5946
2939,9478	81,5768
2940,9121	81,5528
2941,8762	81,527
2942,8406	81,5025
2943,8047	81,4796
2944,7690	81,4555
2945,7332	81,4276
2946,6975	81,3958
2947,6616	81,3632
2948,6260	81,3335
2949,5901	81,3077
2950,5544	81,2819
2951,5186	81,2483
2952,4829	81,2
2953,4470	81,1343
2954,4114	81,0551
2955,3755	80,9708
2956,3398	80,8895
2957,3040	80,8149
2958,2683	80,7453
2959,2324	80,6748
2960,1968	80,5967
2961,1609	80,506
2962,1252	80,4003
2963,0894	80,2796
2964,0537	80,1445
2965,0178	79,9961
2965,9822	79,8364
2966,9463	79,6698
2967,9106	79,5041
2968,8748	79,3501
2969,8391	79,2187
2970,8032	79,1167
2971,7676	79,0445
2972,7317	78,9954
2973,6960	78,9598
2974,6602	78,931
2975,6245	78,9096
2976,5886	78,9047
2977,5530	78,9286
2978,5171	78,9908
2979,4814	79,0915
2980,4456	79,2207
2981,4099	79,3608
2982,3740	79,4928
2983,3384	79,6025
2984,3025	79,6838
2985,2668	79,7393
2986,2310	79,7792
2987,1953	79,8174
2988,1594	79,8675
2989,1238	79,9386
2990,0879	80,0315
2991,0522	80,1387
2992,0164	80,2466
2992,9807	80,3411
2993,9448	80,4128
2994,9092	80,4602
2995,8733	80,4891
2996,8376	80,5085
2997,8018	80,526
2998,7661	80,5456
2999,7302	80,5682
3000,6946	80,5931
3001,6587	80,62
3002,6230	80,6479
3003,5872	80,6746
3004,5515	80,6963
3005,5156	80,7096
3006,4800	80,7148
3007,4441	80,7168
3008,4084	80,7231
3009,3726	80,739
3010,3369	80,7632
3011,3010	80,7878
3012,2654	80,8021
3013,2295	80,7996
3014,1938	80,7821
3015,1580	80,7583
3016,1223	80,7387
3017,0864	80,7303
3018,0508	80,7343
3019,0149	80,748
3019,9792	80,7684
3020,9434	80,7932
3021,9077	80,8202
3022,8718	80,8451
3023,8362	80,8607
3024,8003	80,8596
3025,7646	80,8379
3026,7288	80,798
3027,6931	80,748
3028,6572	80,6982
3029,6216	80,6569
3030,5857	80,6282
3031,5500	80,6125
3032,5142	80,6073
3033,4785	80,6086
3034,4426	80,6113
3035,4070	80,6096
3036,3711	80,5985
3037,3354	80,5765
3038,2996	80,5465
3039,2639	80,5152
3040,2280	80,4894
3041,1924	80,4713
3042,1565	80,4564
3043,1208	80,4356
3044,0850	80,4007
3045,0493	80,3494
3046,0134	80,2874
3046,9778	80,2254
3047,9419	80,1739
3048,9063	80,1369
3049,8704	80,111
3050,8347	80,0877
3051,7988	80,0588
3052,7632	80,0216
3053,7273	79,9788
3054,6917	79,9363
3055,6558	79,8991
3056,6201	79,8678
3057,5842	79,8386
3058,5486	79,8059
3059,5127	79,7648
3060,4771	79,7133
3061,4412	79,6521
3062,4055	79,5845
3063,3696	79,5167
3064,3340	79,4563
3065,2981	79,4101
3066,2625	79,3806
3067,2266	79,3631
3068,1909	79,3467
3069,1550	79,3197
3070,1194	79,2758
3071,0835	79,217
3072,0479	79,152
3073,0120	79,0903
3073,9763	79,0362
3074,9404	78,988
3075,9048	78,941
3076,8689	78,8927
3077,8333	78,8445
3078,7974	78,7991
3079,7617	78,7566
3080,7258	78,7128
3081,6902	78,6622
3082,6543	78,6032
3083,6187	78,5398
3084,5828	78,4794
3085,5471	78,4268
3086,5112	78,3814
3087,4756	78,3371
3088,4397	78,2879
3089,4041	78,2316
3090,3682	78,1706
3091,3325	78,1088
3092,2966	78,0482
3093,2610	77,9881
3094,2251	77,927
3095,1895	77,8647
3096,1536	77,8031
3097,1179	77,7444
3098,0820	77,6897
3099,0464	77,6383
3100,0105	77,5897
3100,9749	77,5444
3101,9390	77,5034
3102,9033	77,4656
3103,8674	77,4275
3104,8318	77,3833
3105,7959	77,329
3106,7603	77,2642
3107,7244	77,193
3108,6887	77,1208
3109,6528	77,0518
3110,6172	76,9859
3111,5813	76,9204
3112,5457	76,852
3113,5098	76,7803
3114,4741	76,7088
3115,4382	76,6433
3116,4026	76,5889
3117,3667	76,5466
3118,3311	76,5117
3119,2952	76,4758
3120,2595	76,4306
3121,2236	76,3725
3122,1880	76,3045
3123,1521	76,2346
3124,1165	76,1712
3125,0806	76,119
3126,0449	76,0768
3127,0090	76,0384
3127,9734	75,9962
3128,9375	75,945
3129,9019	75,8831
3130,8660	75,8131
3131,8303	75,7399
3132,7944	75,6692
3133,7588	75,6046
3134,7229	75,5468
3135,6873	75,4929
3136,6514	75,4384
3137,6157	75,3787
3138,5798	75,3118
3139,5442	75,2387
3140,5083	75,163
3141,4727	75,0888
3142,4368	75,0196
3143,4011	74,9564
3144,3652	74,8981
3145,3296	74,8424
3146,2937	74,787
3147,2581	74,7311
3148,2222	74,6756
3149,1865	74,6216
3150,1506	74,5692
3151,1150	74,516
3152,0791	74,4585
3153,0435	74,3939
3154,0076	74,3225
3154,9719	74,2476
3155,9360	74,1732
3156,9004	74,1014
3157,8645	74,0317
3158,8289	73,9625
3159,7930	73,8939
3160,7573	73,8282
3161,7214	73,769
3162,6858	73,7182
3163,6499	73,6745
3164,6143	73,6346
3165,5784	73,5946
3166,5427	73,5513
3167,5068	73,5021
3168,4712	73,4435
3169,4353	73,3724
3170,3997	73,2887
3171,3638	73,1972
3172,3281	73,1071
3173,2922	73,0277
3174,2566	72,9638
3175,2207	72,9129
3176,1851	72,8673
3177,1492	72,819
3178,1135	72,7642
3179,0776	72,7042
3180,0420	72,6423
3181,0061	72,5806
3181,9705	72,5188
3182,9346	72,4552
3183,8989	72,3899
3184,8630	72,325
3185,8274	72,2634
3186,7915	72,2067
3187,7559	72,1537
3188,7200	72,1019
3189,6843	72,0493
3190,6484	71,9959
3191,6128	71,9431
3192,5769	71,8924
3193,5413	71,8444
3194,5054	71,7991
3195,4697	71,7567
3196,4338	71,718
3197,3982	71,683
3198,3623	71,6488
3199,3267	71,6097
3200,2908	71,5599
3201,2551	71,4973
3202,2192	71,4266
3203,1836	71,3573
3204,1477	71,2994
3205,1121	71,2569
3206,0762	71,2259
3207,0405	71,1966
3208,0046	71,1593
3208,9690	71,1098
3209,9331	71,0511
3210,8975	70,9903
3211,8616	70,9341
3212,8259	70,8861
3213,7900	70,846
3214,7544	70,8113
3215,7185	70,7792
3216,6829	70,7468
3217,6470	70,7114
3218,6113	70,6713
3219,5754	70,6268
3220,5398	70,5811
3221,5039	70,5385
3222,4683	70,5025
3223,4324	70,4736
3224,3967	70,4488
3225,3608	70,424
3226,3252	70,3955
3227,2893	70,3613
3228,2537	70,3211
3229,2178	70,2757
3230,1821	70,2264
3231,1462	70,1762
3232,1106	70,1298
3233,0747	70,0922
3234,0391	70,0663
3235,0032	70,0501
3235,9675	70,0376
3236,9316	70,021
3237,8960	69,9958
3238,8601	69,9637
3239,8245	69,9319
3240,7886	69,9089
3241,7529	69,8993
3242,7170	69,9004
3243,6814	69,9027
3244,6455	69,8954
3245,6099	69,8718
3246,5740	69,8339
3247,5383	69,7906
3248,5024	69,7529
3249,4668	69,7277
3250,4309	69,7151
3251,3953	69,7093
3252,3594	69,7028
3253,3237	69,691
3254,2878	69,6751
3255,2522	69,6612
3256,2163	69,6561
3257,1807	69,6626
3258,1448	69,6775
3259,1091	69,6924
3260,0732	69,6982
3261,0376	69,6898
3262,0017	69,6686
3262,9661	69,642
3263,9302	69,6193
3264,8945	69,6065
3265,8586	69,6042
3266,8230	69,6072
3267,7871	69,6086
3268,7515	69,6028
3269,7156	69,5885
3270,6799	69,569
3271,6440	69,5505
3272,6084	69,5402
3273,5725	69,5428
3274,5369	69,5582
3275,5010	69,581
3276,4653	69,6032
3277,4294	69,6178
3278,3938	69,6219
3279,3579	69,6174
3280,3223	69,608
3281,2864	69,5965
3282,2507	69,583
3283,2148	69,5671
3284,1792	69,5504
3285,1433	69,5377
3286,1077	69,5354
3287,0718	69,5469
3288,0361	69,571
3289,0002	69,6016
3289,9646	69,6315
3290,9287	69,6549
3291,8931	69,668
3292,8572	69,6679
3293,8215	69,6522
3294,7856	69,621
3295,7500	69,5795
3296,7141	69,5392
3297,6785	69,514
3298,6426	69,5135
3299,6069	69,5378
3300,5710	69,5766
3301,5354	69,6151
3302,4995	69,6408
3303,4639	69,6487
3304,4280	69,6405
3305,3923	69,6214
3306,3564	69,5956
3307,3208	69,5655
3308,2849	69,5324
3309,2493	69,4991
3310,2134	69,4699
3311,1777	69,4496
3312,1418	69,441
3313,1062	69,4442
3314,0703	69,4567
3315,0347	69,4753
3315,9988	69,4974
3316,9631	69,5211
3317,9272	69,545
3318,8916	69,5662
3319,8557	69,5806
3320,8201	69,5836
3321,7842	69,5726
3322,7485	69,5492
3323,7126	69,519
3324,6770	69,49
3325,6411	69,4697
3326,6055	69,4626
3327,5696	69,47
3328,5339	69,491
3329,4980	69,5223
3330,4624	69,5582
3331,4265	69,5904
3332,3909	69,609
3333,3550	69,6063
3334,3193	69,5815
3335,2834	69,5424
3336,2478	69,502
3337,2119	69,472
3338,1763	69,4571
3339,1404	69,4535
3340,1047	69,4536
3341,0688	69,451
3342,0332	69,4433
3342,9973	69,4315
3343,9617	69,4174
3344,9258	69,4034
3345,8901	69,3931
3346,8542	69,3927
3347,8186	69,4087
3348,7827	69,4436
3349,7471	69,4917
3350,7112	69,5392
3351,6755	69,5706
3352,6396	69,5767
3353,6040	69,5594
3354,5681	69,5296
3355,5325	69,5007
3356,4966	69,4812
3357,4609	69,4717
3358,4250	69,4681
3359,3894	69,4669
3360,3535	69,4685
3361,3179	69,4761
3362,2820	69,4918
3363,2463	69,5141
3364,2104	69,5374
3365,1748	69,556
3366,1389	69,5668
3367,1033	69,5707
3368,0674	69,5707
3369,0317	69,5701
3369,9958	69,5703
3370,9602	69,5725
3371,9243	69,5783
3372,8887	69,5899
3373,8528	69,6092
3374,8171	69,6359
3375,7813	69,6671
3376,7456	69,6987
3377,7097	69,7275
3378,6741	69,7523
3379,6382	69,7729
3380,6025	69,7892
3381,5667	69,8008
3382,5310	69,808
3383,4951	69,8139
3384,4595	69,8253
3385,4236	69,8495
3386,3879	69,8904
3387,3521	69,945
3388,3164	70,0046
3389,2805	70,0589
3390,2449	70,1008
3391,2090	70,13
3392,1733	70,1524
3393,1375	70,1764
3394,1018	70,2068
3395,0659	70,2429
3396,0303	70,2792
3396,9944	70,3103
3397,9587	70,3354
3398,9229	70,3594
3399,8872	70,3902
3400,8513	70,4337
3401,8157	70,4895
3402,7798	70,5503
3403,7441	70,6067
3404,7083	70,6524
3405,6726	70,6888
3406,6367	70,7233
3407,6011	70,7642
3408,5652	70,8153
3409,5295	70,8729
3410,4937	70,929
3411,4580	70,9771
3412,4221	71,0165
3413,3865	71,0533
3414,3506	71,0962
3415,3149	71,1511
3416,2791	71,218
3417,2434	71,2909
3418,2075	71,3619
3419,1719	71,4243
3420,1360	71,4757
3421,1003	71,5175
3422,0645	71,5539
3423,0288	71,589
3423,9929	71,6268
3424,9573	71,6713
3425,9214	71,7267
3426,8857	71,7953
3427,8499	71,8754
3428,8142	71,9597
3429,7783	72,0377
3430,7427	72,1008
3431,7068	72,1483
3432,6711	72,1889
3433,6353	72,2359
3434,5996	72,3002
3435,5637	72,3835
3436,5281	72,477
3437,4922	72,5662
3438,4565	72,639
3439,4207	72,6911
3440,3850	72,7279
3441,3491	72,7601
3442,3135	72,7982
3443,2776	72,8472
3444,2419	72,9063
3445,2061	72,9704
3446,1704	73,0343
3447,1345	73,0958
3448,0989	73,1564
3449,0630	73,2191
3450,0273	73,2858
3450,9915	73,3562
3451,9558	73,4288
3452,9199	73,5038
3453,8843	73,5835
3454,8484	73,6715
3455,8127	73,7683
3456,7769	73,8688
3457,7412	73,9624
3458,7053	74,0373
3459,6697	74,0877
3460,6338	74,1175
3461,5981	74,1402
3462,5623	74,1711
3463,5266	74,2202
3464,4907	74,2885
3465,4551	74,3703
3466,4192	74,4588
3467,3835	74,5491
3468,3477	74,639
3469,3120	74,7262
3470,2761	74,8071
3471,2405	74,8784
3472,2046	74,9396
3473,1689	74,9952
3474,1331	75,0523
3475,0974	75,1168
3476,0615	75,1896
3477,0259	75,2664
3477,9900	75,3419
3478,9543	75,4137
3479,9185	75,4831
3480,8828	75,5532
3481,8469	75,6255
3482,8113	75,6979
3483,7754	75,7668
3484,7397	75,8302
3485,7039	75,889
3486,6682	75,946
3487,6323	76,0039
3488,5967	76,0635
3489,5608	76,1254
3490,5251	76,191
3491,4893	76,2633
3492,4536	76,3459
3493,4177	76,4401
3494,3821	76,5429
3495,3462	76,6476
3496,3105	76,7458
3497,2747	76,8302
3498,2390	76,8972
3499,2031	76,9465
3500,1675	76,9829
3501,1316	77,0171
3502,0959	77,0655
3503,0601	77,1425
3504,0244	77,25
3504,9885	77,3735
3505,9529	77,4909
3506,9170	77,5834
3507,8813	77,645
3508,8455	77,6857
3509,8098	77,728
3510,7739	77,7934
3511,7383	77,8896
3512,7024	78,0068
3513,6667	78,1267
3514,6309	78,2327
3515,5952	78,3169
3516,5593	78,3814
3517,5237	78,4345
3518,4878	78,4862
3519,4521	78,5448
3520,4163	78,6152
3521,3806	78,6986
3522,3447	78,7906
3523,3091	78,8811
3524,2732	78,9586
3525,2375	79,0184
3526,2017	79,0693
3527,1660	79,132
3528,1301	79,2278
3529,0945	79,3637
3530,0586	79,5254
3531,0229	79,6851
3531,9871	79,8172
3532,9514	79,91
3533,9155	79,9697
3534,8799	80,0159
3535,8440	80,0731
3536,8083	80,1566
3537,7725	80,265
3538,7368	80,3819
3539,7009	80,4872
3540,6653	80,5676
3541,6294	80,6218
3542,5938	80,6604
3543,5579	80,7039
3544,5222	80,7736
3545,4863	80,8775
3546,4507	81,0028
3547,4148	81,1256
3548,3792	81,2292
3549,3433	81,3128
3550,3076	81,3892
3551,2717	81,4759
3552,2361	81,5853
3553,2002	81,7154
3554,1646	81,8506
3555,1287	81,9728
3556,0930	82,0726
3557,0571	82,1526
3558,0215	82,2239
3558,9856	82,2992
3559,9500	82,3836
3560,9141	82,4686
3561,8784	82,5345
3562,8425	82,5599
3563,8069	82,5338
3564,7710	82,4722
3565,7354	82,433
3566,6995	82,4966
3567,6638	82,6916
3568,6279	82,9578
3569,5923	83,2122
3570,5564	83,4098
3571,5208	83,5442
3572,4849	83,6311
3573,4492	83,6954
3574,4133	83,7627
3575,3777	83,8494
3576,3418	83,9564
3577,3062	84,0723
3578,2703	84,182
3579,2346	84,2749
3580,1987	84,3473
3581,1631	84,3998
3582,1272	84,4332
3583,0916	84,4464
3584,0557	84,4389
3585,0200	84,4169
3585,9841	84,4005
3586,9485	84,4192
3587,9126	84,4842
3588,8770	84,5712
3589,8411	84,6453
3590,8054	84,6904
3591,7695	84,7136
3592,7339	84,7388
3593,6980	84,794
3594,6624	84,8901
3595,6265	85,0072
3596,5908	85,1108
3597,5549	85,1867
3598,5193	85,2603
3599,4834	85,3818
3600,4478	85,5856
3601,4119	85,8558
3602,3762	86,1333
3603,3403	86,3588
3604,3047	86,5079
3605,2688	86,6016
3606,2332	86,6987
3607,1973	86,8692
3608,1616	87,1471
3609,1257	87,4995
3610,0901	87,851
3611,0542	88,1369
3612,0186	88,3309
3612,9827	88,4398
3613,9470	88,4851
3614,9111	88,4871
3615,8755	88,4585
3616,8396	88,4093
3617,8040	88,3576
3618,7681	88,3344
3619,7324	88,368
3620,6965	88,4585
3621,6609	88,579
3622,6250	88,6991
3623,5894	88,7994
3624,5535	88,8701
3625,5178	88,9081
3626,4819	88,9229
3627,4463	88,9521
3628,4104	89,0623
3629,3748	89,2914
3630,3389	89,6041
3631,3032	89,9456
3632,2673	90,2921
3633,2317	90,6426
3634,1958	90,9987
3635,1602	91,3543
3636,1243	91,6975
3637,0886	92,0177
3638,0527	92,3116
3639,0171	92,5829
3639,9812	92,8376
3640,9456	93,0793
3641,9097	93,3061
3642,8740	93,5099
3643,8381	93,6756
3644,8025	93,78
3645,7666	93,793
3646,7310	93,6942
3647,6951	93,5325
3648,6594	93,4868
3649,6235	93,7032
3650,5879	94,0772
3651,5520	94,4337
3652,5164	94,7018
3653,4805	94,8847
3654,4448	95,0124
3655,4089	95,1242
3656,3733	95,2553
3657,3374	95,4161
3658,3018	95,5893
3659,2659	95,7494
3660,2302	95,8831
3661,1943	95,9925
3662,1587	96,0872
3663,1228	96,1745
3664,0872	96,2514
3665,0513	96,3042
3666,0156	96,3134
3666,9797	96,2658
3667,9441	96,1721
3668,9082	96,0858
3669,8726	96,0761
3670,8367	96,1554
3671,8010	96,2583
3672,7651	96,2982
3673,7295	96,2178
3674,6936	96,0285
3675,6580	95,8428
3676,6221	95,7983
3677,5864	95,9136
3678,5505	96,1028
3679,5149	96,2828
3680,4790	96,4143
3681,4434	96,4932
3682,4075	96,5348
3683,3718	96,5589
3684,3359	96,5747
3685,3003	96,569
3686,2644	96,5003
3687,2288	96,3044
3688,1929	95,9428
3689,1572	95,4957
3690,1213	95,1525
3691,0857	95,0256
3692,0498	95,0735
3693,0142	95,2017
3693,9783	95,3392
3694,9426	95,4501
3695,9067	95,5235
3696,8711	95,5613
3697,8352	95,5672
3698,7996	95,5408
3699,7637	95,4806
3700,7280	95,3973
3701,6921	95,3237
3702,6565	95,3006
3703,6206	95,3456
3704,5850	95,4407
3705,5491	95,5456
3706,5134	95,6165
3707,4775	95,6196
3708,4419	95,5518
3709,4060	95,4761
3710,3704	95,5324
3711,3345	95,8268
3712,2988	96,2831
3713,2629	96,7159
3714,2273	96,9984
3715,1914	97,0971
3716,1558	97,017
3717,1199	96,7818
3718,0842	96,4309
3719,0483	96,017
3720,0127	95,5964
3720,9768	95,2092
3721,9412	94,8675
3722,9053	94,5687
3723,8696	94,3207
3724,8337	94,1496
3725,7981	94,0786
3726,7622	94,1026
3727,7266	94,1896
3728,6907	94,3004
3729,6550	94,4027
3730,6191	94,469
3731,5835	94,4715
3732,5476	94,389
3733,5120	94,2469
3734,4761	94,1666
3735,4404	94,3052
3736,4045	94,6846
3737,3689	95,1813
3738,3330	95,6663
3739,2974	96,0716
3740,2615	96,3743
3741,2258	96,5716
3742,1899	96,6713
3743,1543	96,6987
3744,1184	96,7036
3745,0828	96,7332
3746,0469	96,7884
3747,0112	96,8316
3747,9753	96,8262
3748,9397	96,7689
3749,9038	96,7186
3750,8682	96,7829
3751,8323	97,0023
3752,7966	97,2965
3753,7607	97,5695
3754,7251	97,7727
3755,6892	97,891
3756,6536	97,9257
3757,6177	97,8981
3758,5820	97,853
3759,5461	97,838
3760,5105	97,8707
3761,4746	97,9351
3762,4390	98,0035
3763,4031	98,055
3764,3674	98,0799
3765,3315	98,0786
3766,2959	98,0566
3767,2600	98,0215
3768,2244	97,9814
3769,1885	97,9494
3770,1528	97,9419
3771,1169	97,9701
3772,0813	98,03
3773,0454	98,1032
3774,0098	98,1666
3774,9739	98,2001
3775,9382	98,1923
3776,9023	98,1459
3777,8667	98,0822
3778,8308	98,0324
3779,7952	98,0154
3780,7593	98,0235
3781,7236	98,0345
3782,6877	98,0316
3783,6521	98,0132
3784,6162	97,9888
3785,5806	97,9704
3786,5447	97,9646
3787,5090	97,9719
3788,4731	97,9915
3789,4375	98,0231
3790,4016	98,0648
3791,3660	98,1085
3792,3301	98,1394
3793,2944	98,1409
3794,2585	98,1025
3795,2229	98,0245
3796,1870	97,9161
3797,1514	97,784
3798,1155	97,6287
3799,0798	97,4562
3800,0439	97,3006
3801,0083	97,224
3801,9724	97,2647
3802,9368	97,3892
3803,9009	97,5196
3804,8652	97,5938
3805,8293	97,5977
3806,7937	97,5703
3807,7578	97,5761
3808,7222	97,6509
3809,6863	97,7748
3810,6506	97,8995
3811,6147	97,9802
3812,5791	97,9875
3813,5432	97,9135
3814,5076	97,7816
3815,4717	97,6422
3816,4360	97,5358
3817,4001	97,4568
3818,3645	97,3697
3819,3286	97,2582
3820,2930	97,1582
3821,2571	97,1345
3822,2214	97,2102
3823,1855	97,3429
3824,1499	97,4715
3825,1140	97,5581
3826,0784	97,5949
3827,0425	97,5967
3828,0068	97,5874
3828,9709	97,586
3829,9353	97,5975
3830,8994	97,6139
3831,8638	97,6207
3832,8279	97,6041
3833,7922	97,5518
3834,7563	97,4536
3835,7207	97,3049
3836,6848	97,1204
3837,6492	96,947
3838,6133	96,8508
3839,5776	96,8677
3840,5417	96,9769
3841,5061	97,1282
3842,4702	97,28
3843,4346	97,412
3844,3987	97,5202
3845,3630	97,6072
3846,3271	97,6736
3847,2915	97,7146
3848,2556	97,718
3849,2200	97,6617
3850,1841	97,5111
3851,1484	97,2292
3852,1125	96,8386
3853,0769	96,5183
3854,0410	96,4792
3855,0054	96,6885
3855,9697	96,9796
3856,9338	97,2486
3857,8982	97,4573
3858,8623	97,5902
3859,8267	97,635
3860,7908	97,5854
3861,7551	97,4568
3862,7192	97,3013
3863,6836	97,1898
3864,6477	97,1599
3865,6121	97,1893
3866,5762	97,2251
3867,5405	97,2217
3868,5046	97,1603
3869,4690	97,0582
3870,4331	96,9651
3871,3975	96,9363
3872,3616	96,9936
3873,3259	97,1155
3874,2900	97,2596
3875,2544	97,3865
3876,2185	97,4693
3877,1829	97,4938
3878,1470	97,4591
3879,1113	97,3814
3880,0754	97,293
3881,0398	97,2272
3882,0039	97,198
3882,9683	97,197
3883,9324	97,2105
3884,8967	97,2336
3885,8608	97,2676
3886,8252	97,3075
3887,7893	97,3367
3888,7537	97,3348
3889,7178	97,2919
3890,6821	97,2232
3891,6462	97,1708
3892,6106	97,1736
3893,5747	97,2307
3894,5391	97,3065
3895,5032	97,361
3896,4675	97,3682
3897,4316	97,3196
3898,3960	97,2247
3899,3601	97,1071
3900,3245	96,9907
3901,2886	96,8863
3902,2529	96,7987
3903,2170	96,7448
3904,1814	96,7509
3905,1455	96,8263
3906,1099	96,9519
3907,0740	97,0946
3908,0383	97,2268
3909,0024	97,333
3909,9668	97,4077
3910,9309	97,4506
3911,8953	97,4604
3912,8594	97,4315
3913,8237	97,3562
3914,7878	97,2351
3915,7522	97,0906
3916,7163	96,9704
3917,6807	96,9251
3918,6448	96,9694
3919,6091	97,07
3920,5732	97,1719
3921,5376	97,2313
3922,5017	97,2332
3923,4661	97,1938
3924,4302	97,1483
3925,3945	97,1258
3926,3586	97,13
3927,3230	97,1422
3928,2871	97,1393
3929,2515	97,1082
3930,2156	97,0528
3931,1799	96,9931
3932,1440	96,9542
3933,1084	96,9514
3934,0725	96,9842
3935,0369	97,0432
3936,0010	97,116
3936,9653	97,1886
3937,9294	97,2454
3938,8938	97,2704
3939,8579	97,2543
3940,8223	97,2009
3941,7864	97,1293
3942,7507	97,0656
3943,7148	97,0266
3944,6792	97,0107
3945,6433	97,0042
3946,6077	96,9928
3947,5718	96,9719
3948,5361	96,9483
3949,5002	96,9345
3950,4646	96,9386
3951,4287	96,9585
3952,3931	96,9858
3953,3572	97,0117
3954,3215	97,031
3955,2856	97,042
3956,2500	97,0443
3957,2141	97,0361
3958,1785	97,0157
3959,1426	96,9838
3960,1069	96,9464
3961,0710	96,9153
3962,0354	96,9026
3962,9995	96,9147
3963,9639	96,9477
3964,9280	96,9886
3965,8923	97,0217
3966,8564	97,0346
3967,8208	97,0219
3968,7849	96,9867
3969,7493	96,9379
3970,7134	96,8867
3971,6777	96,8433
3972,6418	96,8154
3973,6062	96,8076
3974,5703	96,8212
3975,5347	96,8526
3976,4988	96,8937
3977,4631	96,9334
3978,4272	96,9609
3979,3916	96,9685
3980,3557	96,9537
3981,3201	96,9202
3982,2842	96,8761
3983,2485	96,8312
3984,2126	96,7932
3985,1770	96,7657
3986,1411	96,7485
3987,1055	96,7401
3988,0696	96,7393
3989,0339	96,7457
3989,9980	96,7581
3990,9624	96,7725
3991,9265	96,7831
3992,8909	96,7849
3993,8550	96,778
3994,8193	96,7678
3995,7834	96,7628
3996,7478	96,7687
3997,7119	96,6992
3998,6763	96,0929
3999,6404	95,4898
4000,6047	95,2703

##### Extended Information
[Comments]
Sample name	N-GQD_CA
Comment
User
Division
Company	ICMAB

[Detailed Information]
Creation date	25/11/2024 19:22

Data array type	Linear data array
Horizontal axis	Wavenumber [cm-1]
Vertical axis	%T
Start	399,193 cm-1
End	4000,6 cm-1
Data interval	0,964233 cm-1
Data points	3736    

[Measurement Information]
Model Name	FT/IR-4700typeA
Serial Number	C033961788

Accessory	ATR-PRO-ONE
Accessory S/N	B102761809
Incident angle	45 deg

Measurement Date	25/11/2024 19:20

Light Source	Standard
Detector	TGS
Accumulation	32
Resolution	4 cm-1
Zero Filling	On
Apodization	Cosine
Gain	Auto (8)
Aperture	Auto (7.1 mm)
Scanning Speed	Auto (2 mm/sec)
Filter	Auto (30000 Hz)

