TITLE	N-GQD_BC
DATA TYPE	INFRARED SPECTRUM
ORIGIN	JASCO
OWNER	
DATE	24/11/25
TIME	19:08:09
SPECTROMETER/DATA SYSTEM	
LOCALE	3082
RESOLUTION	
DELTAX	0,964233
XUNITS	1/CM
YUNITS	TRANSMITTANCE
FIRSTX	  399,1927
LASTX	 4000,6047
NPOINTS	    3736
FIRSTY	    87,00690
MAXY	   100,03275
MINY	    78,27451
XYDATA
399,1927	87,0069
400,1569	89,5232
401,1211	91,2376
402,0854	92,1689
403,0496	92,6875
404,0138	93,1503
404,9781	93,798
405,9423	94,7117
406,9065	95,7712
407,8708	96,6752
408,8350	97,0737
409,7992	96,7644
410,7635	95,8477
411,7277	94,718
412,6919	93,845
413,6562	93,5068
414,6204	93,7004
415,5846	94,2309
416,5489	94,8139
417,5131	95,1271
418,4773	94,9249
419,4416	94,3113
420,4058	93,7475
421,3700	93,57
422,3343	93,797
423,2985	94,3239
424,2627	95,0451
425,2270	95,8518
426,1912	96,6227
427,1554	97,2533
428,1197	97,6946
429,0839	97,9526
430,0481	98,0545
431,0124	98,0142
431,9766	97,8242
432,9408	97,4792
433,9051	97,0102
434,8693	96,5028
435,8335	96,0751
436,7978	95,8272
437,7620	95,7994
438,7262	95,9732
439,6905	96,3019
440,6547	96,7346
441,6189	97,211
442,5832	97,6416
443,5474	97,9061
444,5116	97,9013
445,4759	97,6072
446,4401	97,1127
447,4043	96,5793
448,3686	96,174
449,3328	96,0046
450,2970	96,0757
451,2613	96,2826
452,2255	96,4635
453,1897	96,491
454,1540	96,3425
455,1182	96,1016
456,0824	95,8942
457,0467	95,792
458,0109	95,7392
458,9751	95,5811
459,9394	95,2025
460,9036	94,6306
461,8678	94,0071
462,8321	93,495
463,7963	93,1964
464,7605	93,099
465,7248	93,0645
466,6890	92,8886
467,6532	92,4151
468,6175	91,6331
469,5817	90,6986
470,5459	89,8803
471,5102	89,4415
472,4744	89,4901
473,4386	89,9004
474,4029	90,4091
475,3671	90,804
476,3313	91,0231
477,2956	91,1181
478,2598	91,1688
479,2240	91,2247
480,1883	91,2956
481,1525	91,3758
482,1167	91,4684
483,0810	91,5828
484,0452	91,7132
485,0094	91,8316
485,9737	91,9169
486,9379	91,9917
487,9021	92,118
488,8664	92,3473
489,8306	92,6671
490,7948	92,9912
491,7591	93,2137
492,7233	93,2952
493,6875	93,2953
494,6518	93,3103
495,6160	93,3778
496,5802	93,4587
497,5445	93,5242
498,5087	93,672
499,4729	94,1529
500,4372	95,2311
501,4014	96,9174
502,3656	98,774
503,3299	100,033
504,2941	100,031
505,2583	98,6463
506,2226	96,3846
507,1868	94,0911
508,1510	92,4917
509,1153	91,8628
510,0795	92,0064
511,0437	92,4884
512,0080	92,9261
512,9722	93,1331
513,9365	93,092
514,9007	92,8426
515,8649	92,396
516,8292	91,7394
517,7934	90,9105
518,7576	90,045
519,7219	89,3172
520,6861	88,8314
521,6503	88,5772
522,6146	88,465
523,5788	88,3846
524,5430	88,2496
525,5073	88,0237
526,4715	87,7218
527,4357	87,3835
528,4000	87,037
529,3642	86,6852
530,3284	86,3171
531,2927	85,9316
532,2569	85,5527
533,2211	85,2271
534,1854	85,0031
535,1496	84,8997
536,1138	84,889
537,0781	84,9022
538,0423	84,8599
539,0065	84,7075
539,9708	84,4355
540,9350	84,0745
541,8992	83,6732
542,8635	83,2787
543,8277	82,9288
544,7919	82,6565
545,7562	82,4944
546,7204	82,4708
547,6846	82,5984
548,6489	82,8656
549,6131	83,2384
550,5773	83,6737
551,5416	84,1344
552,5058	84,5996
553,4700	85,0656
554,4343	85,5421
555,3985	86,0445
556,3627	86,586
557,3270	87,1695
558,2912	87,7827
559,2554	88,3985
560,2197	88,9831
561,1839	89,5077
562,1481	89,9613
563,1124	90,3588
564,0766	90,7383
565,0408	91,1492
566,0051	91,6337
566,9693	92,2088
567,9335	92,8567
568,8978	93,5302
569,8620	94,1752
570,8262	94,7555
571,7905	95,2602
572,7547	95,6895
573,7189	96,0355
574,6832	96,2767
575,6474	96,3956
576,6116	96,4056
577,5759	96,3625
578,5401	96,3429
579,5043	96,4025
580,4686	96,5433
581,4328	96,7122
582,3970	96,8334
583,3613	96,8571
584,3255	96,7938
585,2897	96,7073
586,2540	96,6737
587,2182	96,7353
588,1824	96,879
589,1467	97,0467
590,1109	97,1677
591,0751	97,1943
592,0394	97,1242
593,0036	96,9971
593,9678	96,8681
594,9321	96,7804
595,8963	96,7538
596,8605	96,7898
597,8248	96,8796
598,7890	97,0067
599,7532	97,1483
600,7175	97,279
601,6817	97,3803
602,6459	97,4486
603,6102	97,4952
604,5744	97,5378
605,5386	97,5889
606,5029	97,6478
607,4671	97,7017
608,4313	97,7337
609,3956	97,7323
610,3598	97,6961
611,3240	97,6329
612,2883	97,5546
613,2525	97,4735
614,2167	97,4014
615,1810	97,3498
616,1452	97,3295
617,1094	97,3465
618,0737	97,3989
619,0379	97,4775
620,0021	97,569
620,9664	97,6621
621,9306	97,7485
622,8948	97,8225
623,8591	97,8794
624,8233	97,9158
625,7875	97,9305
626,7518	97,9254
627,7160	97,9047
628,6802	97,8737
629,6445	97,8378
630,6087	97,8043
631,5729	97,7837
632,5372	97,7889
633,5014	97,8297
634,4656	97,9039
635,4299	97,9901
636,3941	98,0485
637,3583	98,0331
638,3226	97,9114
639,2868	97,6808
640,2510	97,3721
641,2153	97,036
642,1795	96,7199
643,1437	96,4494
644,1080	96,2247
645,0722	96,0347
646,0364	95,8757
647,0007	95,7616
647,9649	95,7145
648,9291	95,7414
649,8934	95,8158
650,8576	95,8801
651,8218	95,8743
652,7861	95,7706
653,7503	95,5897
654,7145	95,3893
655,6788	95,2314
656,6430	95,1505
657,6072	95,1442
658,5715	95,1883
659,5357	95,2597
660,4999	95,3465
661,4642	95,4381
662,4284	95,5073
663,3926	95,5027
664,3569	95,3514
665,3211	94,9684
666,2853	94,2945
667,2496	93,4123
668,2138	92,6742
669,1780	92,4781
670,1423	92,794
671,1065	93,2708
672,0707	93,6351
673,0350	93,7839
673,9992	93,7226
674,9634	93,5206
675,9277	93,2808
676,8919	93,0933
677,8561	92,9906
678,8204	92,9423
679,7846	92,887
680,7488	92,7687
681,7131	92,5577
682,6773	92,2551
683,6415	91,8872
684,6058	91,4963
685,5700	91,1289
686,5342	90,8237
687,4985	90,5968
688,4627	90,4342
689,4269	90,2986
690,3912	90,15
691,3554	89,9655
692,3196	89,7457
693,2839	89,5045
694,2481	89,2521
695,2123	88,9851
696,1766	88,69
697,1408	88,357
698,1050	87,9917
699,0693	87,6167
700,0335	87,2596
700,9977	86,9382
701,9620	86,6518
702,9262	86,3843
703,8904	86,1162
704,8547	85,8389
705,8189	85,5599
706,7831	85,2984
707,7474	85,0745
708,7116	84,8997
709,6758	84,7744
710,6401	84,6908
711,6043	84,6371
712,5685	84,5988
713,5328	84,5583
714,4970	84,497
715,4612	84,3998
716,4255	84,2619
717,3897	84,0933
718,3539	83,9183
719,3182	83,7694
720,2824	83,6751
721,2466	83,65
722,2109	83,6914
723,1751	83,7854
724,1393	83,9158
725,1036	84,069
726,0678	84,2342
727,0320	84,4008
727,9963	84,5593
728,9605	84,7037
729,9247	84,8358
730,8890	84,9657
731,8532	85,1068
732,8174	85,2687
733,7817	85,4514
734,7459	85,6446
735,7101	85,8337
736,6744	86,0088
737,6386	86,1711
738,6028	86,3347
739,5671	86,5195
740,5313	86,7416
741,4955	87,004
742,4598	87,2939
743,4240	87,5879
744,3882	87,8625
745,3525	88,1042
746,3167	88,3128
747,2809	88,4969
748,2452	88,6659
749,2094	88,8257
750,1736	88,9798
751,1379	89,1363
752,1021	89,3106
753,0663	89,5205
754,0306	89,7727
754,9948	90,0517
755,9590	90,322
756,9233	90,545
757,8875	90,7029
758,8517	90,811
759,8160	90,9111
760,7802	91,0477
761,7444	91,2431
762,7087	91,487
763,6729	91,7457
764,6371	91,9818
765,6014	92,1729
766,5656	92,3168
767,5298	92,426
768,4941	92,5179
769,4583	92,6094
770,4225	92,7174
771,3868	92,8601
772,3510	93,0543
773,3152	93,3093
774,2795	93,6208
775,2437	93,9696
776,2079	94,326
777,1722	94,6589
778,1364	94,9448
779,1006	95,1734
780,0649	95,3475
781,0291	95,4777
781,9933	95,5736
782,9576	95,6364
783,9218	95,6555
784,8860	95,6149
785,8503	95,5045
786,8145	95,3326
787,7787	95,1307
788,7430	94,948
789,7072	94,8366
790,6714	94,8357
791,6357	94,959
792,5999	95,1921
793,5641	95,4973
794,5284	95,8245
795,4926	96,1246
796,4568	96,362
797,4211	96,5242
798,3853	96,6244
799,3495	96,695
800,3138	96,7729
801,2780	96,8821
802,2422	97,0245
803,2065	97,1808
804,1707	97,3236
805,1349	97,4333
806,0992	97,5072
807,0634	97,5583
808,0276	97,6042
808,9919	97,6548
809,9561	97,7069
810,9203	97,7464
811,8846	97,7572
812,8488	97,7282
813,8130	97,6571
814,7773	97,5486
815,7415	97,4124
816,7057	97,262
817,6700	97,1135
818,6342	96,983
819,5984	96,8812
820,5627	96,8081
821,5269	96,7518
822,4911	96,6933
823,4554	96,6169
824,4196	96,5187
825,3839	96,4096
826,3481	96,3092
827,3123	96,236
828,2766	96,1992
829,2408	96,1966
830,2050	96,2196
831,1693	96,259
832,1335	96,3094
833,0977	96,3696
834,0620	96,4405
835,0262	96,5222
835,9904	96,6134
836,9547	96,7114
837,9189	96,8124
838,8831	96,9104
839,8474	96,9983
840,8116	97,0684
841,7758	97,1151
842,7401	97,1369
843,7043	97,1363
844,6685	97,1176
845,6328	97,0853
846,5970	97,0446
847,5612	97,0022
848,5255	96,9668
849,4897	96,9467
850,4539	96,9448
851,4182	96,9545
852,3824	96,9612
853,3466	96,9479
854,3109	96,903
855,2751	96,8248
856,2393	96,7206
857,2036	96,6002
858,1678	96,4706
859,1320	96,3333
860,0963	96,1863
861,0605	96,0276
862,0247	95,8572
862,9890	95,6759
863,9532	95,4823
864,9174	95,2721
865,8817	95,0391
866,8459	94,7804
867,8101	94,4999
868,7744	94,2089
869,7386	93,9212
870,7028	93,6451
871,6671	93,3779
872,6313	93,1055
873,5955	92,8088
874,5598	92,4736
875,5240	92,0968
876,4882	91,6857
877,4525	91,2519
878,4167	90,8039
879,3809	90,3455
880,3452	89,8799
881,3094	89,415
882,2736	88,9668
883,2379	88,5548
884,2021	88,1954
885,1663	87,8977
886,1306	87,6647
887,0948	87,4998
888,0590	87,4125
889,0233	87,4164
889,9875	87,5214
890,9517	87,7225
891,9160	87,9952
892,8802	88,2998
893,8444	88,5954
894,8087	88,8556
895,7729	89,0777
896,7371	89,2821
897,7014	89,5023
898,6656	89,7714
899,6298	90,1124
900,5941	90,5338
901,5583	91,0308
902,5225	91,5883
903,4868	92,1831
904,4510	92,7853
905,4152	93,3607
906,3795	93,8766
907,3437	94,3097
908,3079	94,6525
909,2722	94,9149
910,2364	95,1181
911,2006	95,2846
912,1649	95,429
913,1291	95,5541
914,0933	95,6539
915,0576	95,7206
916,0218	95,7514
916,9860	95,7508
917,9503	95,7291
918,9145	95,6962
919,8787	95,6578
920,8430	95,6132
921,8072	95,558
922,7714	95,4879
923,7357	95,4023
924,6999	95,304
925,6641	95,1976
926,6284	95,0851
927,5926	94,9636
928,5568	94,8258
929,5211	94,6632
930,4853	94,4697
931,4495	94,2449
932,4138	93,9937
933,3780	93,7247
934,3422	93,4466
935,3065	93,1661
936,2707	92,8857
937,2349	92,6042
938,1992	92,318
939,1634	92,0232
940,1276	91,7167
941,0919	91,3961
942,0561	91,0581
943,0203	90,6966
943,9846	90,3036
944,9488	89,8707
945,9130	89,3928
946,8773	88,8703
947,8415	88,3079
948,8057	87,7109
949,7700	87,0808
950,7342	86,414
951,6984	85,7041
952,6627	84,9486
953,6269	84,1548
954,5911	83,3432
955,5554	82,5463
956,5196	81,8045
957,4838	81,1598
958,4481	80,6513
959,4123	80,3091
960,3765	80,1499
961,3408	80,1727
962,3050	80,3568
963,2692	80,6658
964,2335	81,0552
965,1977	81,4831
966,1619	81,9197
967,1262	82,3504
968,0904	82,7736
969,0546	83,1939
970,0189	83,6157
970,9831	84,0409
971,9473	84,4709
972,9116	84,9102
973,8758	85,3695
974,8400	85,8637
975,8043	86,4071
976,7685	87,0057
977,7327	87,6514
978,6970	88,3211
979,6612	88,9813
980,6254	89,5969
981,5897	90,1424
982,5539	90,6074
983,5181	90,9971
984,4824	91,3254
985,4466	91,6048
986,4108	91,8391
987,3751	92,0218
988,3393	92,1405
989,3035	92,1838
990,2678	92,1469
991,2320	92,0336
992,1962	91,8543
993,1605	91,623
994,1247	91,3545
995,0889	91,0634
996,0532	90,7628
997,0174	90,4622
997,9816	90,1652
998,9459	89,8689
999,9101	89,5649
1000,8743	89,2429
1001,8386	88,8958
1002,8028	88,5227
1003,7670	88,1284
1004,7313	87,7202
1005,6955	87,3014
1006,6597	86,868
1007,6240	86,4077
1008,5882	85,9061
1009,5524	85,3541
1010,5167	84,7551
1011,4809	84,1254
1012,4451	83,4888
1013,4094	82,8677
1014,3736	82,2761
1015,3378	81,7199
1016,3021	81,2028
1017,2663	80,7338
1018,2305	80,3307
1019,1948	80,016
1020,1590	79,8096
1021,1232	79,7221
1022,0875	79,7554
1023,0517	79,9081
1024,0160	80,1797
1024,9802	80,5689
1025,9445	81,0644
1026,9087	81,6336
1027,8729	82,2179
1028,8372	82,7398
1029,8014	83,1213
1030,7656	83,3046
1031,7299	83,268
1032,6941	83,0307
1033,6583	82,6451
1034,6226	82,1815
1035,5868	81,7091
1036,5510	81,281
1037,5153	80,9269
1038,4795	80,6546
1039,4437	80,458
1040,4080	80,3266
1041,3722	80,2508
1042,3364	80,2225
1043,3007	80,2308
1044,2649	80,2594
1045,2291	80,2872
1046,1934	80,2943
1047,1576	80,2683
1048,1218	80,2077
1049,0861	80,118
1050,0503	80,0046
1051,0145	79,8674
1051,9788	79,7015
1052,9430	79,5031
1053,9072	79,2774
1054,8715	79,0402
1055,8357	78,8144
1056,7999	78,6205
1057,7642	78,4703
1058,7284	78,3654
1059,6926	78,3013
1060,6569	78,2745
1061,6211	78,2859
1062,5853	78,3406
1063,5496	78,4439
1064,5138	78,5976
1065,4780	78,7974
1066,4423	79,0341
1067,4065	79,2952
1068,3707	79,5676
1069,3350	79,8392
1070,2992	80,1012
1071,2634	80,348
1072,2277	80,5785
1073,1919	80,7952
1074,1561	81,0042
1075,1204	81,214
1076,0846	81,4336
1077,0488	81,6714
1078,0131	81,9329
1078,9773	82,219
1079,9415	82,5257
1080,9058	82,8449
1081,8700	83,168
1082,8342	83,4877
1083,7985	83,8
1084,7627	84,1037
1085,7269	84,3997
1086,6912	84,6897
1087,6554	84,9757
1088,6196	85,2598
1089,5839	85,5443
1090,5481	85,8306
1091,5123	86,12
1092,4766	86,4137
1093,4408	86,7139
1094,4050	87,0222
1095,3693	87,3374
1096,3335	87,6527
1097,2977	87,955
1098,2620	88,2296
1099,2262	88,4675
1100,1904	88,6719
1101,1547	88,8588
1102,1189	89,0501
1103,0831	89,2629
1104,0474	89,501
1105,0116	89,7534
1105,9758	90,0014
1106,9401	90,2284
1107,9043	90,4263
1108,8685	90,5965
1109,8328	90,7448
1110,7970	90,8751
1111,7612	90,9872
1112,7255	91,0779
1113,6897	91,1452
1114,6539	91,1914
1115,6182	91,2224
1116,5824	91,2454
1117,5466	91,2656
1118,5109	91,2841
1119,4751	91,2994
1120,4393	91,309
1121,4036	91,3117
1122,3678	91,3078
1123,3320	91,2989
1124,2963	91,2863
1125,2605	91,2711
1126,2247	91,2544
1127,1890	91,2385
1128,1532	91,2273
1129,1174	91,2263
1130,0817	91,2415
1131,0459	91,2792
1132,0101	91,3443
1132,9744	91,4395
1133,9386	91,5641
1134,9028	91,7136
1135,8671	91,881
1136,8313	92,0594
1137,7955	92,245
1138,7598	92,4371
1139,7240	92,6365
1140,6882	92,8424
1141,6525	93,051
1142,6167	93,2571
1143,5809	93,4577
1144,5452	93,6533
1145,5094	93,8466
1146,4736	94,0378
1147,4379	94,2216
1148,4021	94,3886
1149,3663	94,5299
1150,3306	94,6425
1151,2948	94,7309
1152,2590	94,8029
1153,2233	94,8643
1154,1875	94,9151
1155,1517	94,9517
1156,1160	94,9719
1157,0802	94,9791
1158,0444	94,9828
1159,0087	94,9944
1159,9729	95,0217
1160,9371	95,0655
1161,9014	95,1202
1162,8656	95,1778
1163,8298	95,2321
1164,7941	95,282
1165,7583	95,3313
1166,7225	95,3867
1167,6868	95,4549
1168,6510	95,5397
1169,6152	95,6405
1170,5795	95,7523
1171,5437	95,8675
1172,5079	95,9784
1173,4722	96,0806
1174,4364	96,174
1175,4006	96,2633
1176,3649	96,3549
1177,3291	96,4536
1178,2933	96,5596
1179,2576	96,668
1180,2218	96,7711
1181,1860	96,8623
1182,1503	96,9401
1183,1145	97,0087
1184,0787	97,0745
1185,0430	97,1429
1186,0072	97,2145
1186,9714	97,286
1187,9357	97,3521
1188,8999	97,4088
1189,8641	97,455
1190,8284	97,4915
1191,7926	97,5194
1192,7568	97,539
1193,7211	97,5507
1194,6853	97,5566
1195,6495	97,5615
1196,6138	97,5716
1197,5780	97,5927
1198,5422	97,6271
1199,5065	97,6731
1200,4707	97,7257
1201,4349	97,7788
1202,3992	97,8277
1203,3634	97,8711
1204,3276	97,9109
1205,2919	97,9508
1206,2561	97,9942
1207,2203	98,0419
1208,1846	98,0914
1209,1488	98,1379
1210,1130	98,1766
1211,0773	98,2049
1212,0415	98,2233
1213,0057	98,2349
1213,9700	98,2443
1214,9342	98,2558
1215,8984	98,2732
1216,8627	98,3
1217,8269	98,3382
1218,7911	98,3873
1219,7554	98,4437
1220,7196	98,5008
1221,6838	98,5524
1222,6481	98,5947
1223,6123	98,6282
1224,5765	98,6572
1225,5408	98,6864
1226,5050	98,7195
1227,4692	98,757
1228,4335	98,7977
1229,3977	98,84
1230,3619	98,8834
1231,3262	98,9281
1232,2904	98,9749
1233,2546	99,0243
1234,2189	99,0756
1235,1831	99,1267
1236,1473	99,1742
1237,1116	99,2143
1238,0758	99,2447
1239,0400	99,2661
1240,0043	99,2839
1240,9685	99,3057
1241,9327	99,3387
1242,8970	99,3848
1243,8612	99,4393
1244,8254	99,4917
1245,7897	99,5309
1246,7539	99,5498
1247,7181	99,5487
1248,6824	99,534
1249,6466	99,5149
1250,6108	99,4993
1251,5751	99,4911
1252,5393	99,4902
1253,5035	99,4944
1254,4678	99,5012
1255,4320	99,5086
1256,3962	99,5157
1257,3605	99,5223
1258,3247	99,5287
1259,2889	99,5364
1260,2532	99,5475
1261,2174	99,5641
1262,1816	99,5866
1263,1459	99,6127
1264,1101	99,6375
1265,0743	99,6557
1266,0386	99,6638
1267,0028	99,6611
1267,9670	99,6503
1268,9313	99,6353
1269,8955	99,6201
1270,8597	99,6066
1271,8240	99,5955
1272,7882	99,586
1273,7524	99,5766
1274,7167	99,5657
1275,6809	99,552
1276,6451	99,5346
1277,6094	99,5146
1278,5736	99,4952
1279,5378	99,4813
1280,5021	99,4773
1281,4663	99,4934
1282,4305	99,5181
1283,3948	99,5423
1284,3590	99,5577
1285,3232	99,5595
1286,2875	99,5484
1287,2517	99,53
1288,2159	99,5117
1289,1802	99,499
1290,1444	99,4923
1291,1086	99,488
1292,0729	99,4812
1293,0371	99,4694
1294,0013	99,4533
1294,9656	99,4365
1295,9298	99,4228
1296,8940	99,4137
1297,8583	99,4078
1298,8225	99,4014
1299,7867	99,391
1300,7510	99,3752
1301,7152	99,3552
1302,6794	99,3337
1303,6437	99,3133
1304,6079	99,2951
1305,5721	99,2785
1306,5364	99,2611
1307,5006	99,2404
1308,4648	99,2146
1309,4291	99,1831
1310,3933	99,1473
1311,3575	99,1103
1312,3218	99,0761
1313,2860	99,0482
1314,2502	99,0277
1315,2145	99,012
1316,1787	98,9957
1317,1429	98,9721
1318,1072	98,9363
1319,0714	98,8873
1320,0356	98,8284
1320,9999	98,7653
1321,9641	98,703
1322,9283	98,6439
1323,8926	98,5883
1324,8568	98,5352
1325,8210	98,4824
1326,7853	98,427
1327,7495	98,3652
1328,7137	98,2919
1329,6780	98,2025
1330,6422	98,0949
1331,6064	97,971
1332,5707	97,8373
1333,5349	97,7027
1334,4991	97,5758
1335,4634	97,4627
1336,4276	97,3679
1337,3918	97,2961
1338,3561	97,2527
1339,3203	97,2418
1340,2845	97,2612
1341,2488	97,3031
1342,2130	97,358
1343,1772	97,4184
1344,1415	97,4793
1345,1057	97,5363
1346,0699	97,5852
1347,0342	97,623
1347,9984	97,6497
1348,9626	97,6684
1349,9269	97,6844
1350,8911	97,7022
1351,8553	97,7242
1352,8196	97,7504
1353,7838	97,7786
1354,7480	97,8053
1355,7123	97,827
1356,6765	97,8401
1357,6407	97,8416
1358,6050	97,8283
1359,5692	97,7962
1360,5334	97,7425
1361,4977	97,6695
1362,4619	97,588
1363,4261	97,5134
1364,3904	97,4549
1365,3546	97,4122
1366,3188	97,3802
1367,2831	97,3544
1368,2473	97,3337
1369,2115	97,3194
1370,1758	97,3141
1371,1400	97,3212
1372,1042	97,3456
1373,0685	97,3933
1374,0327	97,4676
1374,9969	97,5639
1375,9612	97,6694
1376,9254	97,7712
1377,8896	97,8617
1378,8539	97,9396
1379,8181	98,0051
1380,7823	98,0585
1381,7466	98,0994
1382,7108	98,1274
1383,6750	98,1431
1384,6393	98,1474
1385,6035	98,1427
1386,5677	98,1335
1387,5320	98,1249
1388,4962	98,1195
1389,4604	98,1151
1390,4247	98,108
1391,3889	98,096
1392,3531	98,0805
1393,3174	98,0665
1394,2816	98,0605
1395,2458	98,066
1396,2101	98,0798
1397,1743	98,0939
1398,1385	98,1029
1399,1028	98,1068
1400,0670	98,1088
1401,0313	98,1106
1401,9955	98,1117
1402,9597	98,1106
1403,9240	98,1066
1404,8882	98,1014
1405,8524	98,0981
1406,8167	98,098
1407,7809	98,0998
1408,7451	98,101
1409,7094	98,1007
1410,6736	98,1008
1411,6378	98,1049
1412,6021	98,1147
1413,5663	98,1277
1414,5305	98,1375
1415,4948	98,1356
1416,4590	98,1143
1417,4232	98,0716
1418,3875	98,0178
1419,3517	97,9716
1420,3159	97,9435
1421,2802	97,9283
1422,2444	97,9161
1423,2086	97,9022
1424,1729	97,8877
1425,1371	97,8757
1426,1013	97,8663
1427,0656	97,8551
1428,0298	97,8363
1428,9940	97,8079
1429,9583	97,7748
1430,9225	97,7463
1431,8867	97,7274
1432,8510	97,7139
1433,8152	97,695
1434,7794	97,6587
1435,7437	97,602
1436,7079	97,5387
1437,6721	97,4915
1438,6364	97,4697
1439,6006	97,4638
1440,5648	97,4585
1441,5291	97,4426
1442,4933	97,41
1443,4575	97,3584
1444,4218	97,2876
1445,3860	97,1983
1446,3502	97,0942
1447,3145	96,9828
1448,2787	96,8755
1449,2429	96,7817
1450,2072	96,7037
1451,1714	96,6365
1452,1356	96,5729
1453,0999	96,5048
1454,0641	96,4206
1455,0283	96,2987
1455,9926	96,1108
1456,9568	95,8666
1457,9210	95,6542
1458,8853	95,5395
1459,8495	95,4986
1460,8137	95,4889
1461,7780	95,49
1462,7422	95,5012
1463,7064	95,534
1464,6707	95,5997
1465,6349	95,6927
1466,5991	95,7885
1467,5634	95,8625
1468,5276	95,9002
1469,4918	95,8912
1470,4561	95,8186
1471,4203	95,6591
1472,3845	95,4069
1473,3488	95,114
1474,3130	94,8685
1475,2772	94,7083
1476,2415	94,6152
1477,2057	94,5668
1478,1699	94,5587
1479,1342	94,6001
1480,0984	94,7018
1481,0626	94,8645
1482,0269	95,0725
1482,9911	95,2972
1483,9553	95,5088
1484,9196	95,6854
1485,8838	95,8137
1486,8480	95,8839
1487,8123	95,89
1488,7765	95,843
1489,7407	95,7819
1490,7050	95,7446
1491,6692	95,7338
1492,6334	95,73
1493,5977	95,7138
1494,5619	95,6713
1495,5261	95,5947
1496,4904	95,4857
1497,4546	95,3629
1498,4188	95,2544
1499,3831	95,1744
1500,3473	95,1177
1501,3115	95,0732
1502,2758	95,0334
1503,2400	94,9921
1504,2042	94,938
1505,1685	94,8436
1506,1327	94,6582
1507,0969	94,3632
1508,0612	94,0684
1509,0254	93,8776
1509,9896	93,766
1510,9539	93,6816
1511,9181	93,5935
1512,8823	93,4828
1513,8466	93,3335
1514,8108	93,1356
1515,7750	92,8946
1516,7393	92,6322
1517,7035	92,3681
1518,6677	92,095
1519,6320	91,7781
1520,5962	91,3891
1521,5604	90,9498
1522,5247	90,5275
1523,4889	90,1746
1524,4531	89,8949
1525,4174	89,6663
1526,3816	89,4759
1527,3458	89,3279
1528,3101	89,2299
1529,2743	89,1816
1530,2385	89,1748
1531,2028	89,2005
1532,1670	89,252
1533,1312	89,3234
1534,0955	89,4064
1535,0597	89,4919
1536,0239	89,5742
1536,9882	89,6499
1537,9524	89,712
1538,9166	89,7412
1539,8809	89,7073
1540,8451	89,6161
1541,8093	89,5585
1542,7736	89,6019
1543,7378	89,7286
1544,7020	89,9048
1545,6663	90,1108
1546,6305	90,3351
1547,5947	90,5699
1548,5590	90,8085
1549,5232	91,0433
1550,4874	91,2642
1551,4517	91,4596
1552,4159	91,6217
1553,3801	91,7505
1554,3444	91,8515
1555,3086	91,9281
1556,2728	91,975
1557,2371	91,9775
1558,2013	91,9348
1559,1655	91,9007
1560,1298	91,9219
1561,0940	91,9782
1562,0582	92,0399
1563,0225	92,0935
1563,9867	92,1353
1564,9509	92,1665
1565,9152	92,1935
1566,8794	92,2324
1567,8436	92,3085
1568,8079	92,4418
1569,7721	92,6222
1570,7363	92,812
1571,7006	92,9794
1572,6648	93,1189
1573,6290	93,2449
1574,5933	93,3805
1575,5575	93,5426
1576,5217	93,7214
1577,4860	93,8821
1578,4502	94,0038
1579,4144	94,0947
1580,3787	94,1712
1581,3429	94,2435
1582,3071	94,3128
1583,2714	94,3751
1584,2356	94,426
1585,1998	94,4637
1586,1641	94,4893
1587,1283	94,5045
1588,0925	94,5103
1589,0568	94,5075
1590,0210	94,4978
1590,9852	94,4827
1591,9495	94,4621
1592,9137	94,4339
1593,8779	94,3948
1594,8422	94,3417
1595,8064	94,2741
1596,7706	94,193
1597,7349	94,1006
1598,6991	93,9992
1599,6633	93,8914
1600,6276	93,7803
1601,5918	93,6692
1602,5560	93,5606
1603,5203	93,455
1604,4845	93,3502
1605,4487	93,2434
1606,4130	93,1332
1607,3772	93,0228
1608,3414	92,922
1609,3057	92,8438
1610,2699	92,7951
1611,2341	92,7709
1612,1984	92,7569
1613,1626	92,7347
1614,1268	92,6853
1615,0911	92,595
1616,0553	92,4711
1617,0195	92,3512
1617,9838	92,2722
1618,9480	92,237
1619,9122	92,227
1620,8765	92,2261
1621,8407	92,2299
1622,8049	92,2434
1623,7692	92,2724
1624,7334	92,3143
1625,6976	92,3571
1626,6619	92,3877
1627,6261	92,3994
1628,5903	92,3938
1629,5546	92,3772
1630,5188	92,3543
1631,4830	92,3229
1632,4473	92,2717
1633,4115	92,1803
1634,3757	92,0271
1635,3400	91,8214
1636,3042	91,6345
1637,2684	91,5376
1638,2327	91,5226
1639,1969	91,5447
1640,1611	91,5742
1641,1254	91,5996
1642,0896	91,6172
1643,0538	91,6247
1644,0181	91,621
1644,9823	91,6111
1645,9465	91,6133
1646,9108	91,6501
1647,8750	91,7209
1648,8392	91,801
1649,8035	91,8691
1650,7677	91,9168
1651,7319	91,9462
1652,6962	91,98
1653,6604	92,0598
1654,6246	92,1908
1655,5889	92,3339
1656,5531	92,4646
1657,5173	92,5791
1658,4816	92,6799
1659,4458	92,773
1660,4100	92,8711
1661,3743	92,9931
1662,3385	93,1501
1663,3027	93,3292
1664,2670	93,5027
1665,2312	93,6525
1666,1954	93,7775
1667,1597	93,8885
1668,1239	94,0002
1669,0881	94,1238
1670,0524	94,258
1671,0166	94,3919
1671,9808	94,521
1672,9451	94,6531
1673,9093	94,7995
1674,8735	94,9635
1675,8378	95,1346
1676,8020	95,2942
1677,7662	95,4296
1678,7305	95,5396
1679,6947	95,6292
1680,6589	95,7038
1681,6232	95,7715
1682,5874	95,8496
1683,5516	95,9649
1684,5159	96,127
1685,4801	96,3097
1686,4443	96,4858
1687,4086	96,6493
1688,3728	96,8031
1689,3370	96,9475
1690,3013	97,0785
1691,2655	97,1915
1692,2297	97,2851
1693,1940	97,3613
1694,1582	97,4238
1695,1224	97,4762
1696,0867	97,5216
1697,0509	97,566
1698,0151	97,6214
1698,9794	97,6988
1699,9436	97,7936
1700,9078	97,8865
1701,8721	97,9605
1702,8363	98,013
1703,8005	98,0541
1704,7648	98,0996
1705,7290	98,1621
1706,6932	98,2428
1707,6575	98,3314
1708,6217	98,4145
1709,5859	98,4849
1710,5502	98,5421
1711,5144	98,5881
1712,4786	98,6246
1713,4429	98,6518
1714,4071	98,6699
1715,3713	98,6821
1716,3356	98,6983
1717,2998	98,7306
1718,2640	98,7795
1719,2283	98,8359
1720,1925	98,893
1721,1567	98,9486
1722,1210	99,0017
1723,0852	99,0498
1724,0494	99,0891
1725,0137	99,1165
1725,9779	99,1314
1726,9421	99,1355
1727,9064	99,1305
1728,8706	99,116
1729,8348	99,0886
1730,7991	99,0444
1731,7633	98,9854
1732,7275	98,9302
1733,6918	98,9128
1734,6560	98,9511
1735,6202	99,0268
1736,5845	99,1093
1737,5487	99,1793
1738,5129	99,2293
1739,4772	99,2585
1740,4414	99,2713
1741,4056	99,276
1742,3699	99,2804
1743,3341	99,287
1744,2983	99,2923
1745,2626	99,2914
1746,2268	99,2813
1747,1910	99,2641
1748,1553	99,2481
1749,1195	99,2452
1750,0837	99,2608
1751,0480	99,2881
1752,0122	99,3148
1752,9764	99,3341
1753,9407	99,3472
1754,9049	99,3598
1755,8691	99,3776
1756,8334	99,403
1757,7976	99,4323
1758,7618	99,4567
1759,7261	99,4686
1760,6903	99,4668
1761,6545	99,4584
1762,6188	99,4539
1763,5830	99,4593
1764,5472	99,4723
1765,5115	99,4859
1766,4757	99,4925
1767,4399	99,4876
1768,4042	99,4702
1769,3684	99,4429
1770,3326	99,4123
1771,2969	99,3883
1772,2611	99,3807
1773,2253	99,3923
1774,1896	99,4166
1775,1538	99,4434
1776,1180	99,4649
1777,0823	99,4777
1778,0465	99,4819
1779,0107	99,481
1779,9750	99,4807
1780,9392	99,4859
1781,9034	99,4976
1782,8677	99,5131
1783,8319	99,5289
1784,7961	99,5433
1785,7604	99,5555
1786,7246	99,5648
1787,6888	99,5681
1788,6531	99,5614
1789,6173	99,5418
1790,5815	99,5123
1791,5458	99,486
1792,5100	99,4809
1793,4742	99,503
1794,4385	99,5434
1795,4027	99,5793
1796,3669	99,5976
1797,3312	99,5936
1798,2954	99,5698
1799,2596	99,5357
1800,2239	99,5074
1801,1881	99,5
1802,1523	99,5184
1803,1166	99,5556
1804,0808	99,5983
1805,0450	99,6347
1806,0093	99,659
1806,9735	99,6717
1807,9377	99,6792
1808,9020	99,6914
1809,8662	99,716
1810,8304	99,7535
1811,7947	99,7962
1812,7589	99,8332
1813,7231	99,8569
1814,6874	99,8643
1815,6516	99,8561
1816,6158	99,8351
1817,5801	99,8065
1818,5443	99,7772
1819,5085	99,7532
1820,4728	99,7366
1821,4370	99,7254
1822,4012	99,7153
1823,3655	99,702
1824,3297	99,6838
1825,2939	99,661
1826,2582	99,6346
1827,2224	99,6044
1828,1866	99,571
1829,1509	99,5396
1830,1151	99,5198
1831,0793	99,5193
1832,0436	99,5366
1833,0078	99,5628
1833,9720	99,5882
1834,9363	99,6068
1835,9005	99,6182
1836,8647	99,6261
1837,8290	99,6348
1838,7932	99,6455
1839,7574	99,6551
1840,7217	99,659
1841,6859	99,6547
1842,6501	99,6444
1843,6144	99,6353
1844,5786	99,6349
1845,5428	99,6431
1846,5071	99,6519
1847,4713	99,6527
1848,4355	99,6414
1849,3998	99,6185
1850,3640	99,5864
1851,3282	99,548
1852,2925	99,5068
1853,2567	99,4676
1854,2209	99,4368
1855,1852	99,4222
1856,1494	99,4293
1857,1136	99,4581
1858,0779	99,5012
1859,0421	99,5463
1860,0063	99,5808
1860,9706	99,5972
1861,9348	99,5948
1862,8990	99,5775
1863,8633	99,5483
1864,8275	99,5072
1865,7917	99,4525
1866,7560	99,3871
1867,7202	99,3256
1868,6844	99,2916
1869,6487	99,2989
1870,6129	99,3365
1871,5771	99,3785
1872,5414	99,4036
1873,5056	99,4031
1874,4698	99,3822
1875,4341	99,3553
1876,3983	99,3388
1877,3625	99,3408
1878,3268	99,3557
1879,2910	99,3697
1880,2552	99,3717
1881,2195	99,3628
1882,1837	99,3557
1883,1479	99,3662
1884,1122	99,401
1885,0764	99,453
1886,0406	99,5042
1887,0049	99,5352
1887,9691	99,5346
1888,9333	99,5036
1889,8976	99,4552
1890,8618	99,4052
1891,8260	99,3636
1892,7903	99,3341
1893,7545	99,3185
1894,7188	99,3201
1895,6830	99,3406
1896,6472	99,3747
1897,6115	99,4071
1898,5757	99,4181
1899,5399	99,3943
1900,5042	99,3373
1901,4684	99,2662
1902,4326	99,2104
1903,3969	99,1949
1904,3611	99,2261
1905,3253	99,2879
1906,2896	99,3509
1907,2538	99,3873
1908,2180	99,3847
1909,1823	99,352
1910,1465	99,3131
1911,1107	99,2916
1912,0750	99,2976
1913,0392	99,3276
1914,0034	99,3718
1914,9677	99,4205
1915,9319	99,4656
1916,8961	99,5002
1917,8604	99,5191
1918,8246	99,5222
1919,7888	99,515
1920,7531	99,5059
1921,7173	99,4997
1922,6815	99,4935
1923,6458	99,4775
1924,6100	99,4434
1925,5742	99,3925
1926,5385	99,3381
1927,5027	99,2982
1928,4669	99,2854
1929,4312	99,2994
1930,3954	99,3273
1931,3596	99,3527
1932,3239	99,369
1933,2881	99,3852
1934,2523	99,4181
1935,2166	99,4767
1936,1808	99,5517
1937,1450	99,617
1938,1093	99,644
1939,0735	99,6129
1940,0377	99,5177
1941,0020	99,3649
1941,9662	99,1722
1942,9304	98,9696
1943,8947	98,7958
1944,8589	98,6873
1945,8231	98,6655
1946,7874	98,728
1947,7516	98,8459
1948,7158	98,9707
1949,6801	99,0505
1950,6443	99,0526
1951,6085	98,9793
1952,5728	98,864
1953,5370	98,7514
1954,5012	98,6755
1955,4655	98,6484
1956,4297	98,6661
1957,3939	98,7243
1958,3582	98,8297
1959,3224	98,994
1960,2866	99,2129
1961,2509	99,4456
1962,2151	99,6162
1963,1793	99,6439
1964,1436	99,4847
1965,1078	99,163
1966,0720	98,7735
1967,0363	98,4445
1968,0005	98,2721
1968,9647	98,2721
1969,9290	98,389
1970,8932	98,548
1971,8574	98,6999
1972,8217	98,8247
1973,7859	98,9056
1974,7501	98,902
1975,7144	98,7559
1976,6786	98,4376
1977,6428	97,9946
1978,6071	97,5496
1979,5713	97,2377
1980,5355	97,1316
1981,4998	97,2154
1982,4640	97,4116
1983,4282	97,6324
1984,3925	97,8185
1985,3567	97,953
1986,3209	98,0488
1987,2852	98,1242
1988,2494	98,1834
1989,2136	98,2167
1990,1779	98,2155
1991,1421	98,1905
1992,1063	98,1744
1993,0706	98,2027
1994,0348	98,2861
1994,9990	98,3984
1995,9633	98,4898
1996,9275	98,5145
1997,8917	98,4572
1998,8560	98,3488
1999,8202	98,257
2000,7844	98,2548
2001,7487	98,3859
2002,7129	98,6486
2003,6771	98,9759
2004,6414	99,279
2005,6056	99,4634
2006,5698	99,457
2007,5341	99,2378
2008,4983	98,8501
2009,4625	98,4002
2010,4268	98,0274
2011,3910	97,8589
2012,3552	97,963
2013,3195	98,3149
2014,2837	98,786
2015,2479	99,1744
2016,2122	99,2866
2017,1764	99,0462
2018,1406	98,551
2019,1049	98,0187
2020,0691	97,6589
2021,0333	97,5688
2021,9976	97,708
2022,9618	97,9426
2023,9260	98,1257
2024,8903	98,1732
2025,8545	98,0952
2026,8187	97,9687
2027,7830	97,8777
2028,7472	97,8632
2029,7114	97,9105
2030,6757	97,9693
2031,6399	97,9863
2032,6041	97,9289
2033,5684	97,7933
2034,5326	97,5985
2035,4968	97,3754
2036,4611	97,1572
2037,4253	96,9758
2038,3895	96,8621
2039,3538	96,8465
2040,3180	96,9527
2041,2822	97,1823
2042,2465	97,5001
2043,2107	97,8308
2044,1749	98,0789
2045,1392	98,1644
2046,1034	98,0637
2047,0676	97,831
2048,0320	97,5825
2048,9961	97,4389
2049,9604	97,4625
2050,9246	97,6326
2051,8889	97,8651
2052,8530	98,0573
2053,8174	98,1313
2054,7815	98,0633
2055,7458	97,8908
2056,7100	97,6932
2057,6743	97,5534
2058,6384	97,5204
2059,6028	97,5908
2060,5669	97,7152
2061,5313	97,8252
2062,4954	97,8654
2063,4597	97,8167
2064,4238	97,7002
2065,3882	97,56
2066,3523	97,4381
2067,3167	97,3583
2068,2808	97,3278
2069,2451	97,3462
2070,2092	97,4116
2071,1736	97,5157
2072,1377	97,6363
2073,1021	97,7377
2074,0662	97,7846
2075,0305	97,7604
2075,9946	97,6766
2076,9590	97,5656
2077,9231	97,4635
2078,8875	97,3953
2079,8516	97,3714
2080,8159	97,3929
2081,7800	97,4566
2082,7444	97,5535
2083,7085	97,6649
2084,6729	97,764
2085,6370	97,8274
2086,6013	97,8494
2087,5654	97,847
2088,5298	97,8478
2089,4939	97,8674
2090,4583	97,8933
2091,4224	97,8899
2092,3867	97,823
2093,3508	97,6889
2094,3152	97,5268
2095,2793	97,4036
2096,2437	97,3781
2097,2078	97,4669
2098,1721	97,6334
2099,1362	97,8083
2100,1006	97,9244
2101,0647	97,9459
2102,0291	97,8766
2102,9932	97,7483
2103,9575	97,6014
2104,9216	97,4691
2105,8860	97,3723
2106,8501	97,3212
2107,8145	97,3185
2108,7786	97,3585
2109,7429	97,425
2110,7070	97,4916
2111,6714	97,5286
2112,6355	97,5153
2113,5999	97,4499
2114,5640	97,3517
2115,5283	97,2527
2116,4924	97,1855
2117,4568	97,1713
2118,4209	97,2159
2119,3853	97,3121
2120,3494	97,4445
2121,3137	97,5934
2122,2778	97,7358
2123,2422	97,8462
2124,2063	97,9014
2125,1707	97,8902
2126,1348	97,824
2127,0991	97,741
2128,0632	97,696
2129,0276	97,7382
2129,9917	97,8836
2130,9561	98,0978
2131,9202	98,3012
2132,8845	98,3983
2133,8486	98,3238
2134,8130	98,0794
2135,7771	97,7386
2136,7415	97,4095
2137,7056	97,182
2138,6699	97,0904
2139,6340	97,1131
2140,5984	97,1985
2141,5625	97,2991
2142,5269	97,391
2143,4910	97,4736
2144,4553	97,5545
2145,4194	97,6333
2146,3838	97,6936
2147,3479	97,7068
2148,3123	97,6446
2149,2764	97,4942
2150,2407	97,2728
2151,2048	97,0317
2152,1692	96,8467
2153,1333	96,7908
2154,0977	96,8987
2155,0618	97,1329
2156,0261	97,3715
2156,9902	97,4358
2157,9546	97,1791
2158,9187	96,6019
2159,8831	95,8878
2160,8472	95,2922
2161,8115	94,9831
2162,7756	94,9763
2163,7400	95,1792
2164,7041	95,4721
2165,6685	95,7721
2166,6326	96,0564
2167,5969	96,3429
2168,5610	96,6477
2169,5254	96,9498
2170,4895	97,1861
2171,4539	97,2794
2172,4180	97,182
2173,3823	96,9131
2174,3464	96,5657
2175,3108	96,2728
2176,2749	96,1481
2177,2393	96,2309
2178,2034	96,4681
2179,1677	96,7396
2180,1318	96,9148
2181,0962	96,9125
2182,0603	96,7344
2183,0247	96,4547
2183,9888	96,172
2184,9531	95,9576
2185,9172	95,8348
2186,8816	95,7935
2187,8457	95,8215
2188,8101	95,9218
2189,7742	96,1024
2190,7385	96,3503
2191,7026	96,615
2192,6670	96,8206
2193,6311	96,9036
2194,5955	96,8524
2195,5596	96,7177
2196,5239	96,5848
2197,4880	96,5243
2198,4524	96,5531
2199,4165	96,6286
2200,3809	96,678
2201,3450	96,6442
2202,3093	96,5198
2203,2734	96,3498
2204,2378	96,2068
2205,2019	96,1545
2206,1663	96,2202
2207,1304	96,3864
2208,0947	96,6012
2209,0588	96,7991
2210,0232	96,9247
2210,9873	96,9516
2211,9517	96,8909
2212,9158	96,7839
2213,8801	96,6844
2214,8442	96,6348
2215,8086	96,6495
2216,7727	96,7119
2217,7371	96,7873
2218,7012	96,8443
2219,6655	96,871
2220,6296	96,8784
2221,5940	96,8889
2222,5581	96,9187
2223,5225	96,968
2224,4866	97,0209
2225,4509	97,0554
2226,4150	97,0544
2227,3794	97,0133
2228,3435	96,9427
2229,3079	96,8675
2230,2720	96,8233
2231,2363	96,8465
2232,2004	96,9609
2233,1648	97,1631
2234,1289	97,4181
2235,0933	97,6689
2236,0574	97,8609
2237,0217	97,9662
2237,9858	97,9958
2238,9502	97,9898
2239,9143	97,9945
2240,8787	98,0405
2241,8428	98,1334
2242,8071	98,2576
2243,7712	98,3894
2244,7356	98,5079
2245,6997	98,6011
2246,6641	98,6661
2247,6282	98,706
2248,5925	98,7271
2249,5566	98,7348
2250,5210	98,7321
2251,4851	98,7195
2252,4495	98,6982
2253,4136	98,6737
2254,3779	98,6565
2255,3420	98,6575
2256,3064	98,6818
2257,2705	98,7253
2258,2349	98,7766
2259,1990	98,8235
2260,1633	98,8575
2261,1274	98,8746
2262,0918	98,8715
2263,0559	98,8448
2264,0203	98,7939
2264,9844	98,7275
2265,9487	98,6653
2266,9128	98,6321
2267,8772	98,6447
2268,8413	98,6999
2269,8057	98,7732
2270,7698	98,8281
2271,7341	98,8342
2272,6982	98,7827
2273,6626	98,6929
2274,6267	98,6042
2275,5911	98,5592
2276,5552	98,5838
2277,5195	98,6756
2278,4836	98,8034
2279,4480	98,9207
2280,4121	98,9867
2281,3765	98,9837
2282,3406	98,922
2283,3049	98,8312
2284,2690	98,7421
2285,2334	98,6722
2286,1975	98,6198
2287,1619	98,5681
2288,1260	98,496
2289,0903	98,3883
2290,0544	98,2421
2291,0188	98,0672
2291,9829	97,8827
2292,9473	97,7102
2293,9114	97,5668
2294,8757	97,4584
2295,8398	97,3768
2296,8042	97,3034
2297,7683	97,217
2298,7327	97,1035
2299,6968	96,9598
2300,6611	96,7905
2301,6252	96,6009
2302,5896	96,3889
2303,5537	96,1458
2304,5181	95,862
2305,4822	95,5368
2306,4465	95,1833
2307,4106	94,8265
2308,3750	94,494
2309,3391	94,2048
2310,3035	93,962
2311,2676	93,7522
2312,2319	93,5519
2313,1960	93,3368
2314,1604	93,0886
2315,1245	92,7971
2316,0889	92,457
2317,0530	92,063
2318,0173	91,608
2318,9814	91,0886
2319,9458	90,5156
2320,9099	89,9239
2321,8743	89,3681
2322,8384	88,9011
2323,8027	88,5473
2324,7668	88,2934
2325,7312	88,1001
2326,6953	87,9241
2327,6597	87,7371
2328,6238	87,5343
2329,5881	87,3305
2330,5522	87,1458
2331,5166	86,9889
2332,4807	86,8497
2333,4451	86,708
2334,4092	86,5479
2335,3735	86,3684
2336,3376	86,1826
2337,3020	86,0077
2338,2661	85,8499
2339,2305	85,6991
2340,1946	85,5463
2341,1589	85,4204
2342,1230	85,4217
2343,0874	85,6993
2344,0515	86,3425
2345,0159	87,2656
2345,9800	88,2368
2346,9443	89,0251
2347,9084	89,4917
2348,8728	89,5792
2349,8369	89,2711
2350,8013	88,5722
2351,7654	87,5225
2352,7297	86,2268
2353,6938	84,8599
2354,6582	83,6045
2355,6223	82,5595
2356,5867	81,7234
2357,5508	81,0702
2358,5151	80,6156
2359,4792	80,4044
2360,4436	80,4544
2361,4077	80,73
2362,3721	81,1692
2363,3362	81,7216
2364,3005	82,3606
2365,2646	83,0707
2366,2290	83,8366
2367,1931	84,6458
2368,1575	85,4951
2369,1216	86,3892
2370,0859	87,3301
2371,0500	88,3083
2372,0144	89,3006
2372,9785	90,2779
2373,9429	91,2149
2374,9070	92,0963
2375,8713	92,9183
2376,8354	93,6849
2377,7998	94,4034
2378,7639	95,08
2379,7283	95,7187
2380,6924	96,3202
2381,6567	96,8826
2382,6208	97,4008
2383,5852	97,8667
2384,5493	98,2696
2385,5137	98,5991
2386,4778	98,8485
2387,4421	99,018
2388,4063	99,1162
2389,3706	99,1585
2390,3347	99,1641
2391,2991	99,1523
2392,2632	99,1393
2393,2275	99,1361
2394,1917	99,1464
2395,1560	99,1672
2396,1201	99,1901
2397,0845	99,2052
2398,0486	99,2052
2399,0129	99,1884
2399,9771	99,1585
2400,9414	99,1222
2401,9055	99,0861
2402,8699	99,0545
2403,8340	99,0299
2404,7983	99,0126
2405,7625	98,9982
2406,7268	98,9649
2407,6909	98,9252
2408,6553	98,8726
2409,6194	98,8054
2410,5837	98,7295
2411,5479	98,6571
2412,5122	98,601
2413,4763	98,5674
2414,4407	98,5533
2415,4048	98,5475
2416,3691	98,5365
2417,3333	98,5112
2418,2976	98,47
2419,2617	98,4188
2420,2261	98,3672
2421,1902	98,3247
2422,1545	98,2971
2423,1187	98,2854
2424,0830	98,2843
2425,0471	98,2845
2426,0115	98,2747
2426,9756	98,2469
2427,9399	98,1994
2428,9041	98,1388
2429,8684	98,0774
2430,8325	98,0273
2431,7969	97,9953
2432,7610	97,98
2433,7253	97,9741
2434,6895	97,9685
2435,6538	97,9567
2436,6179	97,9358
2437,5823	97,9052
2438,5464	97,8654
2439,5107	97,8182
2440,4749	97,7687
2441,4392	97,7248
2442,4033	97,6945
2443,3677	97,6796
2444,3318	97,6725
2445,2961	97,6585
2446,2603	97,6245
2447,2246	97,5687
2448,1887	97,5034
2449,1531	97,4488
2450,1172	97,4201
2451,0815	97,4167
2452,0457	97,4212
2453,0100	97,4082
2453,9741	97,3598
2454,9385	97,2758
2455,9026	97,1746
2456,8669	97,0841
2457,8311	97,0274
2458,7954	97,0114
2459,7595	97,0249
2460,7239	97,0444
2461,6880	97,0469
2462,6523	97,0212
2463,6165	96,9724
2464,5808	96,9176
2465,5449	96,8748
2466,5093	96,8528
2467,4734	96,8467
2468,4377	96,8414
2469,4019	96,8211
2470,3662	96,777
2471,3303	96,7107
2472,2947	96,6321
2473,2588	96,5542
2474,2231	96,4893
2475,1873	96,4454
2476,1516	96,4253
2477,1157	96,4251
2478,0801	96,4352
2479,0442	96,442
2480,0085	96,4339
2480,9727	96,4053
2481,9370	96,3595
2482,9011	96,3058
2483,8655	96,2549
2484,8296	96,2134
2485,7939	96,1826
2486,7581	96,1593
2487,7224	96,1392
2488,6865	96,1198
2489,6509	96,1022
2490,6150	96,0902
2491,5793	96,0893
2492,5435	96,103
2493,5078	96,1299
2494,4719	96,1628
2495,4363	96,1905
2496,4004	96,2038
2497,3647	96,2007
2498,3289	96,1879
2499,2932	96,1773
2500,2573	96,1784
2501,2217	96,1918
2502,1858	96,2086
2503,1501	96,2157
2504,1143	96,2038
2505,0786	96,1748
2506,0427	96,142
2507,0071	96,1243
2507,9712	96,1361
2508,9355	96,1793
2509,8997	96,2417
2510,8640	96,3031
2511,8281	96,3464
2512,7925	96,3664
2513,7566	96,3712
2514,7209	96,3748
2515,6851	96,3859
2516,6494	96,4009
2517,6135	96,4077
2518,5779	96,3955
2519,5420	96,3655
2520,5063	96,3326
2521,4705	96,3162
2522,4348	96,3273
2523,3989	96,3599
2524,3633	96,3935
2525,3274	96,4038
2526,2917	96,3766
2527,2559	96,3139
2528,2202	96,2323
2529,1843	96,154
2530,1487	96,0974
2531,1128	96,0704
2532,0771	96,069
2533,0413	96,0808
2534,0056	96,0897
2534,9697	96,0821
2535,9341	96,0513
2536,8982	95,9986
2537,8625	95,9319
2538,8267	95,8613
2539,7910	95,7956
2540,7551	95,7385
2541,7195	95,688
2542,6836	95,638
2543,6479	95,5815
2544,6121	95,5149
2545,5764	95,4413
2546,5405	95,3704
2547,5049	95,3142
2548,4690	95,2803
2549,4333	95,2665
2550,3975	95,2607
2551,3618	95,2468
2552,3259	95,2146
2553,2903	95,1654
2554,2544	95,1116
2555,2188	95,069
2556,1829	95,0468
2557,1472	95,0427
2558,1113	95,0446
2559,0757	95,0378
2560,0398	95,0129
2561,0042	94,9702
2561,9683	94,9179
2562,9326	94,8665
2563,8967	94,8238
2564,8611	94,7922
2565,8252	94,7696
2566,7896	94,7523
2567,7537	94,7377
2568,7180	94,7258
2569,6821	94,7181
2570,6465	94,7162
2571,6106	94,7204
2572,5750	94,7278
2573,5391	94,7326
2574,5034	94,7277
2575,4675	94,7079
2576,4319	94,6744
2577,3960	94,6369
2578,3604	94,6105
2579,3245	94,6093
2580,2888	94,6375
2581,2529	94,6868
2582,2173	94,7397
2583,1814	94,7799
2584,1458	94,8005
2585,1099	94,8055
2586,0742	94,803
2587,0383	94,796
2588,0027	94,7786
2588,9668	94,7418
2589,9312	94,6835
2590,8953	94,6149
2591,8596	94,5565
2592,8237	94,5268
2593,7881	94,531
2594,7522	94,5578
2595,7166	94,5876
2596,6807	94,6046
2597,6450	94,6052
2598,6091	94,5975
2599,5735	94,5932
2600,5376	94,5994
2601,5020	94,6159
2602,4661	94,637
2603,4304	94,6578
2604,3945	94,6767
2605,3589	94,6958
2606,3230	94,7175
2607,2874	94,7424
2608,2515	94,768
2609,2158	94,7905
2610,1799	94,8068
2611,1443	94,816
2612,1084	94,8204
2613,0728	94,8239
2614,0369	94,8303
2615,0012	94,8409
2615,9653	94,8535
2616,9297	94,8637
2617,8938	94,8672
2618,8582	94,8634
2619,8223	94,8564
2620,7866	94,8534
2621,7507	94,8605
2622,7151	94,8793
2623,6792	94,9057
2624,6436	94,932
2625,6077	94,9504
2626,5720	94,9559
2627,5361	94,948
2628,5005	94,9288
2629,4646	94,902
2630,4290	94,8714
2631,3931	94,8405
2632,3574	94,8125
2633,3215	94,7905
2634,2859	94,7757
2635,2500	94,7668
2636,2144	94,7593
2637,1785	94,7475
2638,1428	94,727
2639,1069	94,6971
2640,0713	94,6618
2641,0354	94,6272
2641,9998	94,5985
2642,9639	94,5773
2643,9282	94,5615
2644,8923	94,547
2645,8567	94,5304
2646,8208	94,5099
2647,7852	94,4851
2648,7493	94,4556
2649,7136	94,4214
2650,6777	94,3839
2651,6421	94,3472
2652,6062	94,3174
2653,5706	94,2995
2654,5347	94,2939
2655,4990	94,2959
2656,4631	94,2982
2657,4275	94,2969
2658,3916	94,2946
2659,3560	94,2994
2660,3201	94,3196
2661,2844	94,3571
2662,2485	94,4048
2663,2129	94,4497
2664,1770	94,4797
2665,1414	94,4902
2666,1055	94,4855
2667,0698	94,4763
2668,0339	94,4728
2668,9983	94,4811
2669,9624	94,5013
2670,9268	94,53
2671,8909	94,5632
2672,8552	94,5979
2673,8193	94,6319
2674,7837	94,6631
2675,7478	94,6892
2676,7122	94,7092
2677,6763	94,7242
2678,6406	94,7376
2679,6047	94,7535
2680,5691	94,7741
2681,5332	94,7985
2682,4976	94,8232
2683,4617	94,8447
2684,4260	94,8611
2685,3901	94,8739
2686,3545	94,8857
2687,3186	94,8991
2688,2830	94,914
2689,2471	94,9283
2690,2114	94,9393
2691,1755	94,9459
2692,1399	94,949
2693,1040	94,9504
2694,0684	94,9513
2695,0325	94,9509
2695,9968	94,9475
2696,9609	94,9404
2697,9253	94,931
2698,8894	94,9225
2699,8538	94,9178
2700,8179	94,9174
2701,7822	94,9186
2702,7463	94,917
2703,7107	94,9095
2704,6748	94,8951
2705,6392	94,876
2706,6033	94,8552
2707,5676	94,8354
2708,5317	94,8181
2709,4961	94,8031
2710,4602	94,7898
2711,4246	94,7766
2712,3887	94,7618
2713,3530	94,7439
2714,3171	94,7225
2715,2815	94,6995
2716,2456	94,6778
2717,2100	94,6604
2718,1741	94,6484
2719,1384	94,6406
2720,1025	94,634
2721,0669	94,6256
2722,0310	94,614
2722,9954	94,6
2723,9595	94,5855
2724,9238	94,5727
2725,8879	94,5629
2726,8523	94,5561
2727,8164	94,5516
2728,7808	94,5474
2729,7449	94,5415
2730,7092	94,532
2731,6733	94,5177
2732,6377	94,4988
2733,6018	94,4769
2734,5662	94,4547
2735,5303	94,4352
2736,4946	94,4212
2737,4587	94,4138
2738,4231	94,4125
2739,3872	94,4145
2740,3516	94,4158
2741,3157	94,4122
2742,2800	94,4012
2743,2441	94,3824
2744,2085	94,3576
2745,1726	94,3303
2746,1370	94,3038
2747,1011	94,2815
2748,0654	94,2658
2749,0295	94,258
2749,9939	94,2587
2750,9580	94,2661
2751,9224	94,2765
2752,8865	94,2846
2753,8508	94,2852
2754,8149	94,2753
2755,7793	94,2559
2756,7434	94,2322
2757,7078	94,2111
2758,6719	94,1987
2759,6362	94,1974
2760,6003	94,2055
2761,5647	94,2189
2762,5288	94,2341
2763,4932	94,2498
2764,4573	94,2672
2765,4216	94,288
2766,3857	94,3123
2767,3501	94,3373
2768,3142	94,3581
2769,2786	94,3694
2770,2427	94,3685
2771,2070	94,3564
2772,1711	94,3385
2773,1355	94,3233
2774,0996	94,3189
2775,0640	94,3293
2776,0281	94,3522
2776,9924	94,3792
2777,9565	94,3994
2778,9209	94,4054
2779,8850	94,3977
2780,8494	94,3841
2781,8135	94,3758
2782,7778	94,3802
2783,7419	94,3969
2784,7063	94,4185
2785,6704	94,4348
2786,6348	94,4392
2787,5989	94,4315
2788,5632	94,4174
2789,5273	94,4039
2790,4917	94,3957
2791,4558	94,3936
2792,4202	94,3952
2793,3843	94,3976
2794,3486	94,3987
2795,3127	94,3978
2796,2771	94,3948
2797,2412	94,3896
2798,2056	94,3816
2799,1697	94,3707
2800,1340	94,3578
2801,0981	94,3453
2802,0625	94,3357
2803,0266	94,3312
2803,9910	94,3326
2804,9551	94,3389
2805,9194	94,3473
2806,8835	94,354
2807,8479	94,3555
2808,8120	94,349
2809,7764	94,334
2810,7405	94,3124
2811,7048	94,2876
2812,6689	94,2627
2813,6333	94,2391
2814,5974	94,2158
2815,5618	94,1903
2816,5259	94,1614
2817,4902	94,1306
2818,4543	94,1019
2819,4187	94,0791
2820,3828	94,063
2821,3472	94,0501
2822,3113	94,0346
2823,2756	94,0121
2824,2397	93,983
2825,2041	93,9519
2826,1682	93,9246
2827,1326	93,904
2828,0967	93,8874
2829,0610	93,8683
2830,0251	93,84
2830,9895	93,8001
2831,9536	93,751
2832,9180	93,6991
2833,8821	93,6513
2834,8464	93,6122
2835,8105	93,5829
2836,7749	93,562
2837,7390	93,5464
2838,7034	93,5331
2839,6675	93,5187
2840,6318	93,5001
2841,5959	93,4742
2842,5603	93,4383
2843,5244	93,3912
2844,4888	93,3336
2845,4529	93,2698
2846,4172	93,2083
2847,3813	93,1604
2848,3457	93,1381
2849,3098	93,1488
2850,2742	93,1918
2851,2383	93,2578
2852,2026	93,3326
2853,1667	93,4025
2854,1311	93,4585
2855,0952	93,4981
2856,0596	93,524
2857,0237	93,5415
2857,9880	93,5555
2858,9521	93,5689
2859,9165	93,5822
2860,8806	93,5942
2861,8450	93,6031
2862,8091	93,6072
2863,7734	93,6063
2864,7375	93,6021
2865,7019	93,5977
2866,6660	93,5973
2867,6304	93,6046
2868,5945	93,6215
2869,5588	93,6473
2870,5229	93,679
2871,4873	93,7117
2872,4514	93,7404
2873,4158	93,7618
2874,3799	93,7748
2875,3442	93,7817
2876,3083	93,7867
2877,2727	93,7937
2878,2368	93,8046
2879,2012	93,8175
2880,1653	93,828
2881,1296	93,8317
2882,0938	93,8268
2883,0581	93,8159
2884,0222	93,8052
2884,9866	93,8009
2885,9507	93,8068
2886,9150	93,8211
2887,8792	93,8375
2888,8435	93,8475
2889,8076	93,8447
2890,7720	93,8275
2891,7361	93,8002
2892,7004	93,7705
2893,6646	93,7456
2894,6289	93,7286
2895,5930	93,7175
2896,5574	93,7073
2897,5215	93,6937
2898,4858	93,6754
2899,4500	93,6544
2900,4143	93,6339
2901,3784	93,6155
2902,3428	93,5989
2903,3069	93,583
2904,2712	93,5667
2905,2354	93,5492
2906,1997	93,5285
2907,1638	93,5005
2908,1282	93,4597
2909,0923	93,4041
2910,0566	93,3374
2911,0208	93,2704
2911,9851	93,2164
2912,9492	93,1846
2913,9136	93,1759
2914,8777	93,1822
2915,8420	93,1918
2916,8062	93,1962
2917,7705	93,1941
2918,7346	93,191
2919,6990	93,1939
2920,6631	93,2068
2921,6274	93,2289
2922,5916	93,2562
2923,5559	93,2845
2924,5200	93,3115
2925,4844	93,3364
2926,4485	93,3586
2927,4128	93,3772
2928,3770	93,3905
2929,3413	93,3976
2930,3054	93,3985
2931,2698	93,3949
2932,2339	93,3883
2933,1982	93,3799
2934,1624	93,3697
2935,1267	93,3575
2936,0908	93,3437
2937,0552	93,3293
2938,0193	93,3158
2938,9836	93,3048
2939,9478	93,2975
2940,9121	93,2949
2941,8762	93,2971
2942,8406	93,3023
2943,8047	93,3072
2944,7690	93,3079
2945,7332	93,3028
2946,6975	93,2945
2947,6616	93,29
2948,6260	93,2968
2949,5901	93,3182
2950,5544	93,3504
2951,5186	93,3837
2952,4829	93,4084
2953,4470	93,4207
2954,4114	93,4249
2955,3755	93,4301
2956,3398	93,4434
2957,3040	93,4657
2958,2683	93,4914
2959,2324	93,5135
2960,1968	93,5288
2961,1609	93,539
2962,1252	93,549
2963,0894	93,5622
2964,0537	93,5783
2965,0178	93,5942
2965,9822	93,6068
2966,9463	93,6154
2967,9106	93,6217
2968,8748	93,6287
2969,8391	93,6378
2970,8032	93,6484
2971,7676	93,6576
2972,7317	93,662
2973,6960	93,6592
2974,6602	93,6486
2975,6245	93,6322
2976,5886	93,6138
2977,5530	93,5975
2978,5171	93,5862
2979,4814	93,5803
2980,4456	93,5787
2981,4099	93,5797
2982,3740	93,5826
2983,3384	93,5873
2984,3025	93,5936
2985,2668	93,5993
2986,2310	93,6015
2987,1953	93,5982
2988,1594	93,5907
2989,1238	93,5839
2990,0879	93,5831
2991,0522	93,5912
2992,0164	93,6065
2992,9807	93,6245
2993,9448	93,6405
2994,9092	93,653
2995,8733	93,6637
2996,8376	93,675
2997,8018	93,6879
2998,7661	93,7013
2999,7302	93,7135
3000,6946	93,7241
3001,6587	93,7335
3002,6230	93,7423
3003,5872	93,7494
3004,5515	93,7528
3005,5156	93,7517
3006,4800	93,7491
3007,4441	93,7512
3008,4084	93,7642
3009,3726	93,7905
3010,3369	93,8263
3011,3010	93,8636
3012,2654	93,8945
3013,2295	93,9148
3014,1938	93,9256
3015,1580	93,9315
3016,1223	93,9376
3017,0864	93,9484
3018,0508	93,9678
3019,0149	93,9996
3019,9792	94,0472
3020,9434	94,1109
3021,9077	94,1864
3022,8718	94,2649
3023,8362	94,3349
3024,8003	94,3867
3025,7646	94,4155
3026,7288	94,4218
3027,6931	94,4105
3028,6572	94,3895
3029,6216	94,3679
3030,5857	94,3554
3031,5500	94,3604
3032,5142	94,3869
3033,4785	94,4326
3034,4426	94,489
3035,4070	94,5452
3036,3711	94,5923
3037,3354	94,6277
3038,2996	94,6553
3039,2639	94,6815
3040,2280	94,7103
3041,1924	94,7398
3042,1565	94,7625
3043,1208	94,7705
3044,0850	94,7613
3045,0493	94,741
3046,0134	94,7221
3046,9778	94,7176
3047,9419	94,7335
3048,9063	94,7656
3049,8704	94,8011
3050,8347	94,8258
3051,7988	94,831
3052,7632	94,8182
3053,7273	94,7973
3054,6917	94,7821
3055,6558	94,7825
3056,6201	94,8007
3057,5842	94,8296
3058,5486	94,8574
3059,5127	94,8733
3060,4771	94,8722
3061,4412	94,8564
3062,4055	94,8339
3063,3696	94,8159
3064,3340	94,812
3065,2981	94,8276
3066,2625	94,8613
3067,2266	94,9052
3068,1909	94,9471
3069,1550	94,9745
3070,1194	94,9795
3071,0835	94,9615
3072,0479	94,9276
3073,0120	94,8898
3073,9763	94,8598
3074,9404	94,8444
3075,9048	94,8445
3076,8689	94,8562
3077,8333	94,8738
3078,7974	94,8919
3079,7617	94,9054
3080,7258	94,9095
3081,6902	94,9006
3082,6543	94,8782
3083,6187	94,8465
3084,5828	94,8135
3085,5471	94,7879
3086,5112	94,7752
3087,4756	94,7753
3088,4397	94,784
3089,4041	94,7952
3090,3682	94,8043
3091,3325	94,809
3092,2966	94,8088
3093,2610	94,8045
3094,2251	94,7976
3095,1895	94,7895
3096,1536	94,7807
3097,1179	94,7693
3098,0820	94,7513
3099,0464	94,7235
3100,0105	94,6862
3100,9749	94,6451
3101,9390	94,609
3102,9033	94,5849
3103,8674	94,5737
3104,8318	94,5698
3105,7959	94,5643
3106,7603	94,5505
3107,7244	94,5266
3108,6887	94,4962
3109,6528	94,4656
3110,6172	94,4409
3111,5813	94,4257
3112,5457	94,4205
3113,5098	94,4233
3114,4741	94,4305
3115,4382	94,4395
3116,4026	94,4507
3117,3667	94,4669
3118,3311	94,4911
3119,2952	94,5228
3120,2595	94,556
3121,2236	94,5821
3122,1880	94,5948
3123,1521	94,5952
3124,1165	94,592
3125,0806	94,5961
3126,0449	94,6133
3127,0090	94,64
3127,9734	94,6661
3128,9375	94,6813
3129,9019	94,682
3130,8660	94,6731
3131,8303	94,6644
3132,7944	94,6641
3133,7588	94,6737
3134,7229	94,6878
3135,6873	94,6971
3136,6514	94,6943
3137,6157	94,6767
3138,5798	94,6478
3139,5442	94,6144
3140,5083	94,5838
3141,4727	94,5609
3142,4368	94,5461
3143,4011	94,536
3144,3652	94,5249
3145,3296	94,5092
3146,2937	94,4901
3147,2581	94,4747
3148,2222	94,4726
3149,1865	94,4902
3150,1506	94,5251
3151,1150	94,5652
3152,0791	94,5938
3153,0435	94,5993
3154,0076	94,5816
3154,9719	94,5525
3155,9360	94,5275
3156,9004	94,5172
3157,8645	94,5211
3158,8289	94,5306
3159,7930	94,5364
3160,7573	94,5358
3161,7214	94,5341
3162,6858	94,5392
3163,6499	94,5551
3164,6143	94,5775
3165,5784	94,5955
3166,5427	94,5968
3167,5068	94,5738
3168,4712	94,5266
3169,4353	94,463
3170,3997	94,3955
3171,3638	94,3377
3172,3281	94,2996
3173,2922	94,2844
3174,2566	94,2869
3175,2207	94,2963
3176,1851	94,3001
3177,1492	94,2903
3178,1135	94,2665
3179,0776	94,2347
3180,0420	94,204
3181,0061	94,1816
3181,9705	94,1715
3182,9346	94,1744
3183,8989	94,1885
3184,8630	94,2102
3185,8274	94,2337
3186,7915	94,2522
3187,7559	94,2607
3188,7200	94,2585
3189,6843	94,2512
3190,6484	94,2478
3191,6128	94,2563
3192,5769	94,2793
3193,5413	94,3127
3194,5054	94,3496
3195,4697	94,3851
3196,4338	94,4199
3197,3982	94,4581
3198,3623	94,5017
3199,3267	94,5457
3200,2908	94,5796
3201,2551	94,5942
3202,2192	94,59
3203,1836	94,5789
3204,1477	94,5785
3205,1121	94,6006
3206,0762	94,6424
3207,0405	94,6876
3208,0046	94,7155
3208,9690	94,7149
3209,9331	94,6908
3210,8975	94,6616
3211,8616	94,6472
3212,8259	94,6579
3213,7900	94,6898
3214,7544	94,7286
3215,7185	94,7584
3216,6829	94,7698
3217,6470	94,763
3218,6113	94,7452
3219,5754	94,7268
3220,5398	94,7165
3221,5039	94,7185
3222,4683	94,7324
3223,4324	94,7539
3224,3967	94,7781
3225,3608	94,8008
3226,3252	94,8204
3227,2893	94,8367
3228,2537	94,8493
3229,2178	94,8563
3230,1821	94,8544
3231,1462	94,8407
3232,1106	94,8161
3233,0747	94,7863
3234,0391	94,7608
3235,0032	94,7495
3235,9675	94,7579
3236,9316	94,7853
3237,8960	94,8251
3238,8601	94,8685
3239,8245	94,908
3240,7886	94,9403
3241,7529	94,9649
3242,7170	94,9826
3243,6814	94,9936
3244,6455	94,9973
3245,6099	94,9944
3246,5740	94,9876
3247,5383	94,9814
3248,5024	94,9802
3249,4668	94,9857
3250,4309	94,9963
3251,3953	95,0078
3252,3594	95,0153
3253,3237	95,016
3254,2878	95,0119
3255,2522	95,0098
3256,2163	95,0192
3257,1807	95,0482
3258,1448	95,0978
3259,1091	95,16
3260,0732	95,2199
3261,0376	95,2622
3262,0017	95,279
3262,9661	95,2741
3263,9302	95,2606
3264,8945	95,2538
3265,8586	95,2641
3266,8230	95,2931
3267,7871	95,3353
3268,7515	95,3827
3269,7156	95,4291
3270,6799	95,4714
3271,6440	95,5093
3272,6084	95,5436
3273,5725	95,5757
3274,5369	95,6074
3275,5010	95,6405
3276,4653	95,6763
3277,4294	95,7153
3278,3938	95,7567
3279,3579	95,7992
3280,3223	95,8401
3281,2864	95,8764
3282,2507	95,9059
3283,2148	95,929
3284,1792	95,9501
3285,1433	95,9759
3286,1077	96,0127
3287,0718	96,0627
3288,0361	96,1228
3289,0002	96,1867
3289,9646	96,248
3290,9287	96,3025
3291,8931	96,3481
3292,8572	96,3833
3293,8215	96,4075
3294,7856	96,4227
3295,7500	96,4355
3296,7141	96,455
3297,6785	96,4879
3298,6426	96,5335
3299,6069	96,5832
3300,5710	96,6253
3301,5354	96,6532
3302,4995	96,6689
3303,4639	96,6806
3304,4280	96,6948
3305,3923	96,7113
3306,3564	96,7234
3307,3208	96,7248
3308,2849	96,7163
3309,2493	96,7077
3310,2134	96,7113
3311,1777	96,7338
3312,1418	96,7723
3313,1062	96,8159
3314,0703	96,8533
3315,0347	96,8789
3315,9988	96,8941
3316,9631	96,9045
3317,9272	96,9156
3318,8916	96,9294
3319,8557	96,9451
3320,8201	96,9606
3321,7842	96,9738
3322,7485	96,9836
3323,7126	96,9893
3324,6770	96,9908
3325,6411	96,99
3326,6055	96,9909
3327,5696	96,9993
3328,5339	97,0196
3329,4980	97,0522
3330,4624	97,0908
3331,4265	97,1249
3332,3909	97,1442
3333,3550	97,1444
3334,3193	97,1304
3335,2834	97,1137
3336,2478	97,1056
3337,2119	97,1097
3338,1763	97,1196
3339,1404	97,1229
3340,1047	97,11
3341,0688	97,0797
3342,0332	97,0402
3342,9973	97,0045
3343,9617	96,9826
3344,9258	96,9781
3345,8901	96,9886
3346,8542	97,0096
3347,8186	97,0384
3348,7827	97,0742
3349,7471	97,1158
3350,7112	97,1585
3351,6755	97,1942
3352,6396	97,2139
3353,6040	97,2124
3354,5681	97,192
3355,5325	97,1624
3356,4966	97,1365
3357,4609	97,1243
3358,4250	97,1285
3359,3894	97,1438
3360,3535	97,1608
3361,3179	97,1722
3362,2820	97,1771
3363,2463	97,1816
3364,2104	97,1946
3365,1748	97,2209
3366,1389	97,2575
3367,1033	97,2935
3368,0674	97,3158
3369,0317	97,3154
3369,9958	97,2912
3370,9602	97,2507
3371,9243	97,2055
3372,8887	97,1667
3373,8528	97,1413
3374,8171	97,1318
3375,7813	97,137
3376,7456	97,1552
3377,7097	97,1848
3378,6741	97,2239
3379,6382	97,2683
3380,6025	97,3099
3381,5667	97,338
3382,5310	97,3428
3383,4951	97,321
3384,4595	97,2792
3385,4236	97,233
3386,3879	97,2009
3387,3521	97,1967
3388,3164	97,2238
3389,2805	97,2746
3390,2449	97,3345
3391,2090	97,3885
3392,1733	97,4263
3393,1375	97,4461
3394,1018	97,452
3395,0659	97,4491
3396,0303	97,4399
3396,9944	97,4239
3397,9587	97,4016
3398,9229	97,3779
3399,8872	97,362
3400,8513	97,3632
3401,8157	97,384
3402,7798	97,4181
3403,7441	97,4521
3404,7083	97,474
3405,6726	97,4792
3406,6367	97,4727
3407,6011	97,4643
3408,5652	97,4614
3409,5295	97,4649
3410,4937	97,4701
3411,4580	97,4718
3412,4221	97,4697
3413,3865	97,4695
3414,3506	97,479
3415,3149	97,5028
3416,2791	97,5389
3417,2434	97,5788
3418,2075	97,6114
3419,1719	97,6278
3420,1360	97,6252
3421,1003	97,6081
3422,0645	97,5853
3423,0288	97,5659
3423,9929	97,5561
3424,9573	97,5593
3425,9214	97,5772
3426,8857	97,6093
3427,8499	97,652
3428,8142	97,6974
3429,7783	97,7348
3430,7427	97,7559
3431,7068	97,7596
3432,6711	97,7539
3433,6353	97,752
3434,5996	97,7637
3435,5637	97,7881
3436,5281	97,8129
3437,4922	97,8207
3438,4565	97,8004
3439,4207	97,7554
3440,3850	97,7036
3441,3491	97,669
3442,3135	97,6686
3443,2776	97,7035
3444,2419	97,7582
3445,2061	97,8079
3446,1704	97,8314
3447,1345	97,8219
3448,0989	97,7905
3449,0630	97,7574
3450,0273	97,74
3450,9915	97,7452
3451,9558	97,7693
3452,9199	97,804
3453,8843	97,841
3454,8484	97,8759
3455,8127	97,9068
3456,7769	97,9318
3457,7412	97,9466
3458,7053	97,9459
3459,6697	97,9271
3460,6338	97,8943
3461,5981	97,8581
3462,5623	97,8315
3463,5266	97,8236
3464,4907	97,8358
3465,4551	97,862
3466,4192	97,8927
3467,3835	97,9188
3468,3477	97,9346
3469,3120	97,9388
3470,2761	97,9335
3471,2405	97,9234
3472,2046	97,9143
3473,1689	97,9116
3474,1331	97,9184
3475,0974	97,9343
3476,0615	97,956
3477,0259	97,98
3477,9900	98,0048
3478,9543	98,0316
3479,9185	98,0611
3480,8828	98,0902
3481,8469	98,1103
3482,8113	98,1119
3483,7754	98,0915
3484,7397	98,056
3485,7039	98,0204
3486,6682	98,0014
3487,6323	98,0085
3488,5967	98,0381
3489,5608	98,0768
3490,5251	98,1103
3491,4893	98,1323
3492,4536	98,1467
3493,4177	98,1619
3494,3821	98,1838
3495,3462	98,2111
3496,3105	98,2363
3497,2747	98,2511
3498,2390	98,2517
3499,2031	98,2394
3500,1675	98,2186
3501,1316	98,195
3502,0959	98,1755
3503,0601	98,1666
3504,0244	98,1709
3504,9885	98,1848
3505,9529	98,1989
3506,9170	98,2021
3507,8813	98,1878
3508,8455	98,1595
3509,8098	98,1329
3510,7739	98,1279
3511,7383	98,1565
3512,7024	98,2139
3513,6667	98,2812
3514,6309	98,3355
3515,5952	98,3598
3516,5593	98,3512
3517,5237	98,3211
3518,4878	98,2885
3519,4521	98,2699
3520,4163	98,2723
3521,3806	98,2917
3522,3447	98,317
3523,3091	98,3353
3524,2732	98,3387
3525,2375	98,3278
3526,2017	98,3108
3527,1660	98,3003
3528,1301	98,3087
3529,0945	98,3425
3530,0586	98,3991
3531,0229	98,468
3531,9871	98,5352
3532,9514	98,5874
3533,9155	98,6152
3534,8799	98,6156
3535,8440	98,5937
3536,8083	98,5616
3537,7725	98,5337
3538,7368	98,5196
3539,7009	98,5211
3540,6653	98,5343
3541,6294	98,5534
3542,5938	98,5744
3543,5579	98,5959
3544,5222	98,6176
3545,4863	98,6369
3546,4507	98,6476
3547,4148	98,6439
3548,3792	98,6256
3549,3433	98,6005
3550,3076	98,582
3551,2717	98,5836
3552,2361	98,611
3553,2002	98,6558
3554,1646	98,7001
3555,1287	98,7281
3556,0930	98,7357
3557,0571	98,7304
3558,0215	98,7252
3558,9856	98,7311
3559,9500	98,7499
3560,9141	98,7722
3561,8784	98,7831
3562,8425	98,7696
3563,8069	98,728
3564,7710	98,6698
3565,7354	98,6254
3566,6995	98,6303
3567,6638	98,6897
3568,6279	98,7688
3569,5923	98,8285
3570,5564	98,8517
3571,5208	98,8406
3572,4849	98,8082
3573,4492	98,7721
3574,4133	98,7485
3575,3777	98,7459
3576,3418	98,7616
3577,3062	98,786
3578,2703	98,8098
3579,2346	98,829
3580,1987	98,8435
3581,1631	98,8533
3582,1272	98,854
3583,0916	98,8369
3584,0557	98,792
3585,0200	98,7144
3585,9841	98,6163
3586,9485	98,5312
3587,9126	98,4918
3588,8770	98,4962
3589,8411	98,5139
3590,8054	98,5171
3591,7695	98,4955
3592,7339	98,4567
3593,6980	98,4202
3594,6624	98,4055
3595,6265	98,4169
3596,5908	98,441
3597,5549	98,4628
3598,5193	98,4819
3599,4834	98,5132
3600,4478	98,5716
3601,4119	98,6544
3602,3762	98,7396
3603,3403	98,8016
3604,3047	98,8279
3605,2688	98,8263
3606,2332	98,8244
3607,1973	98,8571
3608,1616	98,9419
3609,1257	99,0599
3610,0901	99,1675
3611,0542	99,228
3612,0186	99,2319
3612,9827	99,1952
3613,9470	99,1454
3614,9111	99,1026
3615,8755	99,0695
3616,8396	99,0346
3617,8040	98,984
3618,7681	98,9158
3619,7324	98,8475
3620,6965	98,8017
3621,6609	98,7861
3622,6250	98,7922
3623,5894	98,8047
3624,5535	98,8078
3625,5178	98,7855
3626,4819	98,726
3627,4463	98,6367
3628,4104	98,5639
3629,3748	98,5639
3630,3389	98,6385
3631,3032	98,7439
3632,2673	98,8428
3633,2317	98,9209
3634,1958	98,981
3635,1602	99,0347
3636,1243	99,0938
3637,0886	99,1634
3638,0527	99,2385
3639,0171	99,3088
3639,9812	99,3652
3640,9456	99,4052
3641,9097	99,4323
3642,8740	99,4504
3643,8381	99,457
3644,8025	99,4413
3645,7666	99,3869
3646,7310	99,2845
3647,6951	99,165
3648,6594	99,1236
3649,6235	99,2221
3650,5879	99,3881
3651,5520	99,5275
3652,5164	99,6072
3653,4805	99,6304
3654,4448	99,6117
3655,4089	99,5713
3656,3733	99,5326
3657,3374	99,511
3658,3018	99,5056
3659,2659	99,5044
3660,2302	99,4966
3661,1943	99,4799
3662,1587	99,4595
3663,1228	99,4433
3664,0872	99,4362
3665,0513	99,4376
3666,0156	99,4441
3666,9797	99,4551
3667,9441	99,4762
3668,9082	99,5164
3669,8726	99,5751
3670,8367	99,6332
3671,8010	99,6647
3672,7651	99,6512
3673,7295	99,5868
3674,6936	99,4864
3675,6580	99,3945
3676,6221	99,3546
3677,5864	99,3638
3678,5505	99,39
3679,5149	99,4085
3680,4790	99,4082
3681,4434	99,396
3682,4075	99,385
3683,3718	99,3866
3684,3359	99,4039
3685,3003	99,4296
3686,2644	99,4434
3687,2288	99,4114
3688,1929	99,2988
3689,1572	99,111
3690,1213	98,9173
3691,0857	98,7882
3692,0498	98,7383
3693,0142	98,7468
3693,9783	98,7895
3694,9426	98,8478
3695,9067	98,9076
3696,8711	98,9564
3697,8352	98,9835
3698,7996	98,9809
3699,7637	98,947
3700,7280	98,8929
3701,6921	98,8435
3702,6565	98,8256
3703,6206	98,8508
3704,5850	98,9104
3705,5491	98,9852
3706,5134	99,0539
3707,4775	99,0974
3708,4419	99,1025
3709,4060	99,0759
3710,3704	99,0599
3711,3345	99,1105
3712,2988	99,233
3713,2629	99,3747
3714,2273	99,4808
3715,1914	99,5233
3716,1558	99,4962
3717,1199	99,4085
3718,0842	99,2812
3719,0483	99,1434
3720,0127	99,0216
3720,9768	98,9251
3721,9412	98,8421
3722,9053	98,752
3723,8696	98,6463
3724,8337	98,539
3725,7981	98,4562
3726,7622	98,4156
3727,7266	98,4169
3728,6907	98,4487
3729,6550	98,4969
3730,6191	98,5466
3731,5835	98,5789
3732,5476	98,5711
3733,5120	98,5132
3734,4761	98,4425
3735,4404	98,4374
3736,4045	98,5367
3737,3689	98,7039
3738,3330	98,8814
3739,2974	99,032
3740,2615	99,1408
3741,2258	99,2053
3742,1899	99,2302
3743,1543	99,2287
3744,1184	99,222
3745,0828	99,2278
3746,0469	99,2458
3747,0112	99,2646
3747,9753	99,2762
3748,9397	99,2848
3749,9038	99,3099
3750,8682	99,3752
3751,8323	99,4795
3752,7966	99,5963
3753,7607	99,7036
3754,7251	99,7925
3755,6892	99,8574
3756,6536	99,8896
3757,6177	99,8813
3758,5820	99,8359
3759,5461	99,7736
3760,5105	99,7192
3761,4746	99,6864
3762,4390	99,6753
3763,4031	99,6794
3764,3674	99,6906
3765,3315	99,702
3766,2959	99,7084
3767,2600	99,7066
3768,2244	99,6966
3769,1885	99,6816
3770,1528	99,668
3771,1169	99,6625
3772,0813	99,6679
3773,0454	99,6816
3774,0098	99,6973
3774,9739	99,7079
3775,9382	99,7085
3776,9023	99,7004
3777,8667	99,6926
3778,8308	99,6978
3779,7952	99,721
3780,7593	99,7534
3781,7236	99,7798
3782,6877	99,7892
3783,6521	99,7804
3784,6162	99,7616
3785,5806	99,7443
3786,5447	99,7357
3787,5090	99,7353
3788,4731	99,738
3789,4375	99,7391
3790,4016	99,7384
3791,3660	99,7388
3792,3301	99,7445
3793,2944	99,7582
3794,2585	99,7787
3795,2229	99,799
3796,1870	99,8069
3797,1514	99,7889
3798,1155	99,7385
3799,0798	99,6652
3800,0439	99,5999
3801,0083	99,5825
3801,9724	99,6268
3802,9368	99,7013
3803,9009	99,7564
3804,8652	99,7595
3805,8293	99,7101
3806,7937	99,6408
3807,7578	99,5994
3808,7222	99,6126
3809,6863	99,6695
3810,6506	99,7402
3811,6147	99,7979
3812,5791	99,8265
3813,5432	99,821
3814,5076	99,7897
3815,4717	99,7513
3816,4360	99,7207
3817,4001	99,6962
3818,3645	99,6659
3819,3286	99,6276
3820,2930	99,6003
3821,2571	99,6102
3822,2214	99,6611
3823,1855	99,7275
3824,1499	99,7792
3825,1140	99,7982
3826,0784	99,7828
3827,0425	99,7441
3828,0068	99,7003
3828,9709	99,6688
3829,9353	99,6593
3830,8994	99,6723
3831,8638	99,7028
3832,8279	99,7427
3833,7922	99,7822
3834,7563	99,8086
3835,7207	99,8074
3836,6848	99,768
3837,6492	99,6959
3838,6133	99,6185
3839,5776	99,5689
3840,5417	99,5613
3841,5061	99,5872
3842,4702	99,6297
3843,4346	99,6751
3844,3987	99,7158
3845,3630	99,7486
3846,3271	99,7726
3847,2915	99,7867
3848,2556	99,7888
3849,2200	99,775
3850,1841	99,7382
3851,1484	99,6703
3852,1125	99,5759
3853,0769	99,4958
3854,0410	99,4818
3855,0054	99,5302
3855,9697	99,6029
3856,9338	99,6735
3857,8982	99,7302
3858,8623	99,7669
3859,8267	99,7795
3860,7908	99,7668
3861,7551	99,7346
3862,7192	99,6972
3863,6836	99,6706
3864,6477	99,6603
3865,6121	99,6583
3866,5762	99,6532
3867,5405	99,638
3868,5046	99,6134
3869,4690	99,586
3870,4331	99,5655
3871,3975	99,5599
3872,3616	99,5712
3873,3259	99,5963
3874,2900	99,6295
3875,2544	99,6643
3876,2185	99,6947
3877,1829	99,7154
3878,1470	99,7226
3879,1113	99,7149
3880,0754	99,6946
3881,0398	99,6671
3882,0039	99,6397
3882,9683	99,6194
3883,9324	99,6135
3884,8967	99,6258
3885,8608	99,6526
3886,8252	99,6815
3887,7893	99,6977
3888,7537	99,6921
3889,7178	99,665
3890,6821	99,6295
3891,6462	99,6062
3892,6106	99,609
3893,5747	99,6325
3894,5391	99,6602
3895,5032	99,6789
3896,4675	99,6843
3897,4316	99,6796
3898,3960	99,6716
3899,3601	99,6648
3900,3245	99,6548
3901,2886	99,63
3902,2529	99,5843
3903,2170	99,5292
3904,1814	99,4898
3905,1455	99,4847
3906,1099	99,5136
3907,0740	99,5636
3908,0383	99,6205
3909,0024	99,674
3909,9668	99,7177
3910,9309	99,7467
3911,8953	99,7567
3912,8594	99,743
3913,8237	99,7031
3914,7878	99,6411
3915,7522	99,5719
3916,7163	99,5208
3917,6807	99,5103
3918,6448	99,5429
3919,6091	99,5988
3920,5732	99,6517
3921,5376	99,683
3922,5017	99,689
3923,4661	99,6797
3924,4302	99,6714
3925,3945	99,6753
3926,3586	99,6901
3927,3230	99,7047
3928,2871	99,7068
3929,2515	99,6884
3930,2156	99,6503
3931,1799	99,6037
3932,1440	99,5661
3933,1084	99,5522
3934,0725	99,5656
3935,0369	99,6004
3936,0010	99,6458
3936,9653	99,6901
3937,9294	99,7234
3938,8938	99,7397
3939,8579	99,7395
3940,8223	99,73
3941,7864	99,7228
3942,7507	99,7272
3943,7148	99,7438
3944,6792	99,7633
3945,6433	99,772
3946,6077	99,7584
3947,5718	99,7184
3948,5361	99,66
3949,5002	99,6022
3950,4646	99,5661
3951,4287	99,5634
3952,3931	99,5919
3953,3572	99,639
3954,3215	99,6876
3955,2856	99,7217
3956,2500	99,7312
3957,2141	99,7149
3958,1785	99,6804
3959,1426	99,641
3960,1069	99,6114
3961,0710	99,6038
3962,0354	99,6236
3962,9995	99,667
3963,9639	99,723
3964,9280	99,7763
3965,8923	99,8125
3966,8564	99,8216
3967,8208	99,8004
3968,7849	99,7542
3969,7493	99,6958
3970,7134	99,642
3971,6777	99,6077
3972,6418	99,601
3973,6062	99,6208
3974,5703	99,6574
3975,5347	99,697
3976,4988	99,7275
3977,4631	99,743
3978,4272	99,7442
3979,3916	99,7351
3980,3557	99,7199
3981,3201	99,7009
3982,2842	99,6782
3983,2485	99,6524
3984,2126	99,6256
3985,1770	99,6025
3986,1411	99,5891
3987,1055	99,5903
3988,0696	99,6078
3989,0339	99,6385
3989,9980	99,6747
3990,9624	99,706
3991,9265	99,7242
3992,8909	99,7268
3993,8550	99,7182
3994,8193	99,7069
3995,7834	99,7007
3996,7478	99,7021
3997,7119	99,7074
3998,6763	99,7103
3999,6404	99,7065
4000,6047	99,6966

##### Extended Information
[Comments]
Sample name	N-GQD_BC
Comment
User
Division
Company	ICMAB

[Detailed Information]
Creation date	25/11/2024 19:08

Data array type	Linear data array
Horizontal axis	Wavenumber [cm-1]
Vertical axis	%T
Start	399,193 cm-1
End	4000,6 cm-1
Data interval	0,964233 cm-1
Data points	3736    

[Measurement Information]
Model Name	FT/IR-4700typeA
Serial Number	C033961788

Accessory	ATR-PRO-ONE
Accessory S/N	B102761809
Incident angle	45 deg

Measurement Date	25/11/2024 19:06

Light Source	Standard
Detector	TGS
Accumulation	32
Resolution	4 cm-1
Zero Filling	On
Apodization	Cosine
Gain	Auto (8)
Aperture	Auto (7.1 mm)
Scanning Speed	Auto (2 mm/sec)
Filter	Auto (30000 Hz)

