TITLE	N-GQD_Glu
DATA TYPE	INFRARED SPECTRUM
ORIGIN	JASCO
OWNER	
DATE	24/11/25
TIME	19:45:01
SPECTROMETER/DATA SYSTEM	
LOCALE	3082
RESOLUTION	
DELTAX	0,964233
XUNITS	1/CM
YUNITS	TRANSMITTANCE
FIRSTX	  399,1927
LASTX	 4000,6047
NPOINTS	    3736
FIRSTY	    85,06151
MAXY	    99,12162
MINY	    22,16119
XYDATA
399,1927	85,0615
400,1569	89,0564
401,1211	91,7699
402,0854	93,2419
403,0496	93,9527
404,0138	94,3229
404,9781	94,6191
405,9423	95,0031
406,9065	95,5681
407,8708	96,3132
408,8350	97,1127
409,7992	97,7418
410,7635	97,9773
411,7277	97,7303
412,6919	97,1006
413,6562	96,2874
414,6204	95,4459
415,5846	94,6153
416,5489	93,7413
417,5131	92,771
418,4773	91,8145
419,4416	91,2056
420,4058	91,1956
421,3700	91,7042
422,3343	92,537
423,2985	93,5799
424,2627	94,765
425,2270	95,9857
426,1912	97,0721
427,1554	97,8447
428,1197	98,186
429,0839	98,0665
430,0481	97,5279
431,0124	96,6651
431,9766	95,6217
432,9408	94,5858
433,9051	93,7648
434,8693	93,3321
435,8335	93,3605
436,7978	93,7851
437,7620	94,4333
438,7262	95,0997
439,6905	95,6094
440,6547	95,8404
441,6189	95,731
442,5832	95,3027
443,5474	94,6857
444,5116	94,0988
445,4759	93,7635
446,4401	93,8096
447,4043	94,2393
448,3686	94,9483
449,3328	95,7704
450,2970	96,5267
451,2613	97,0755
452,2255	97,3489
453,1897	97,3545
454,1540	97,1396
455,1182	96,751
456,0824	96,2304
457,0467	95,6481
458,0109	95,1311
458,9751	94,8185
459,9394	94,7664
460,9036	94,9142
461,8678	95,1453
462,8321	95,3614
463,7963	95,5135
464,7605	95,5936
465,7248	95,6028
466,6890	95,5194
467,6532	95,2968
468,6175	94,9039
469,5817	94,3873
470,5459	93,9105
471,5102	93,7197
472,4744	94,0062
473,4386	94,7448
474,4029	95,6765
475,3671	96,4756
476,3313	96,9273
477,2956	96,991
478,2598	96,7666
479,2240	96,425
480,1883	96,1317
481,1525	95,9841
482,1167	95,9803
483,0810	96,0312
484,0452	96,0142
485,0094	95,8511
485,9737	95,5577
486,9379	95,2236
487,9021	94,9434
488,8664	94,7639
489,8306	94,676
490,7948	94,6423
491,7591	94,6363
492,7233	94,6669
493,6875	94,7648
494,6518	94,9429
495,6160	95,1663
496,5802	95,3582
497,5445	95,4341
498,5087	95,3375
499,4729	95,0574
500,4372	94,6256
501,4014	94,1019
502,3656	93,5545
503,3299	93,0441
504,2941	92,6116
505,2583	92,2736
506,2226	92,0257
507,1868	91,8542
508,1510	91,7535
509,1153	91,7393
510,0795	91,8446
511,0437	92,0979
512,0080	92,4957
512,9722	92,9873
513,9365	93,4817
514,9007	93,8723
515,8649	94,0727
516,8292	94,0497
517,7934	93,8384
518,7576	93,5189
519,7219	93,1663
520,6861	92,8204
521,6503	92,4967
522,6146	92,2165
523,5788	92,0258
524,5430	91,9871
525,5073	92,1412
526,4715	92,4616
527,4357	92,8484
528,4000	93,1753
529,3642	93,3483
530,3284	93,3333
531,2927	93,1544
532,2569	92,8788
533,2211	92,5946
534,1854	92,3824
535,1496	92,2887
536,1138	92,3141
537,0781	92,4189
538,0423	92,5418
539,0065	92,622
539,9708	92,6167
540,9350	92,7209
541,8992	92,5538
542,8635	92,3589
543,8277	92,2013
544,7919	92,1422
545,7562	92,2133
546,7204	92,3961
547,6846	92,6256
548,6489	92,82
549,6131	92,9228
550,5773	92,9283
551,5416	92,8759
552,5058	92,8196
553,4700	92,7946
554,4343	92,804
555,3985	92,8268
556,3627	92,8419
557,3270	92,8446
558,2912	92,8464
559,2554	92,8603
560,2197	92,8876
561,1839	92,9149
562,1481	92,924
563,1124	92,9068
564,0766	92,8702
565,0408	92,8347
566,0051	92,825
566,9693	92,8618
567,9335	92,9565
568,8978	93,1092
569,8620	93,3095
570,8262	93,539
571,7905	93,7737
572,7547	93,9841
573,7189	94,1354
574,6832	94,1967
575,6474	94,1562
576,6116	94,0376
577,5759	93,8981
578,5401	93,806
579,5043	93,8085
580,4686	93,9112
581,4328	94,0742
582,3970	94,2309
583,3613	94,3201
584,3255	94,315
585,2897	94,233
586,2540	94,1212
587,2182	94,0303
588,1824	93,992
589,1467	94,0102
590,1109	94,0645
591,0751	94,1216
592,0394	94,151
593,0036	94,1375
593,9678	94,0855
594,9321	94,0137
595,8963	93,9456
596,8605	93,9001
597,8248	93,8837
598,7890	93,8875
599,7532	93,8886
600,7175	93,8614
601,6817	93,7955
602,6459	93,7053
603,6102	93,6248
604,5744	93,5884
605,5386	93,611
606,5029	93,6824
607,4671	93,7821
608,4313	93,899
609,3956	94,0364
610,3598	94,1901
611,3240	94,3157
612,2883	94,3198
613,2525	94,0998
614,2167	93,6118
615,1810	92,9343
616,1452	92,2724
617,1094	91,8735
618,0737	91,8885
619,0379	92,279
620,0021	92,8472
620,9664	93,3604
621,9306	93,6679
622,8948	93,7435
623,8591	93,6576
624,8233	93,5078
625,7875	93,3438
626,7518	93,1699
627,7160	92,9447
628,6802	92,6383
629,6445	92,2585
630,6087	91,845
631,5729	91,447
632,5372	91,1021
633,5014	90,8248
634,4656	90,6019
635,4299	90,3919
636,3941	90,1329
637,3583	89,7626
638,3226	89,248
639,2868	88,6057
640,2510	87,8961
641,2153	87,1889
642,1795	86,5198
643,1437	85,8684
644,1080	85,1764
645,0722	84,3981
646,0364	83,5505
647,0007	82,7282
647,9649	82,0671
648,9291	81,6706
649,8934	81,5432
650,8576	81,5785
651,8218	81,6197
652,7861	81,5559
653,7503	81,3863
654,7145	81,2097
655,6788	81,1506
656,6430	81,277
657,6072	81,5752
658,5715	81,9941
659,5357	82,5066
660,4999	83,12
661,4642	83,8111
662,4284	84,4488
663,3926	84,7737
664,3569	84,4229
665,3211	82,9706
666,2853	80,0879
667,2496	76,0863
668,2138	72,5908
669,1780	71,5964
670,1423	73,1679
671,1065	75,7558
672,0707	78,0656
673,0350	79,562
673,9992	80,1864
674,9634	80,1377
675,9277	79,7591
676,8919	79,3977
677,8561	79,2576
678,8204	79,3591
679,7846	79,616
680,7488	79,9309
681,7131	80,2407
682,6773	80,518
683,6415	80,7571
684,6058	80,9679
685,5700	81,1758
686,5342	81,4177
687,4985	81,7295
688,4627	82,1304
689,4269	82,6143
690,3912	83,1557
691,3554	83,7229
692,3196	84,2904
693,2839	84,8443
694,2481	85,3814
695,2123	85,9033
696,1766	86,411
697,1408	86,9031
698,1050	87,3789
699,0693	87,8422
700,0335	88,3014
700,9977	88,7611
701,9620	89,211
702,9262	89,6212
703,8904	89,952
704,8547	90,176
705,8189	90,2956
706,7831	90,3413
707,7474	90,3514
708,7116	90,3492
709,6758	90,3379
710,6401	90,3103
711,6043	90,2578
712,5685	90,1576
713,5328	89,9458
714,4970	89,5067
715,4612	88,7364
716,4255	87,5599
717,3897	86,0706
718,3539	84,5452
719,3182	83,3825
720,2824	82,9366
721,2466	83,3361
722,2109	84,4198
723,1751	85,8516
724,1393	87,2974
725,1036	88,5506
726,0678	89,5542
727,0320	90,3471
727,9963	90,9921
728,9605	91,5288
729,9247	91,9679
730,8890	92,3113
731,8532	92,5722
732,8174	92,7763
733,7817	92,9512
734,7459	93,1149
735,7101	93,2744
736,6744	93,4308
737,6386	93,5839
738,6028	93,7327
739,5671	93,8733
740,5313	93,9998
741,4955	94,1083
742,4598	94,2028
743,4240	94,2948
744,3882	94,3979
745,3525	94,5179
746,3167	94,6468
747,2809	94,7647
748,2452	94,8505
749,2094	94,8967
750,1736	94,9196
751,1379	94,956
752,1021	95,0447
753,0663	95,2015
754,0306	95,4027
754,9948	95,59
755,9590	95,6987
756,9233	95,6948
757,8875	95,5969
758,8517	95,4689
759,8160	95,3859
760,7802	95,3957
761,7444	95,4975
762,7087	95,6489
763,6729	95,7942
764,6371	95,8951
765,6014	95,9462
766,5656	95,9686
767,5298	95,9904
768,4941	96,0285
769,4583	96,082
770,4225	96,1382
771,3868	96,1838
772,3510	96,2133
773,3152	96,2294
774,2795	96,2384
775,2437	96,244
776,2079	96,2464
777,1722	96,2453
778,1364	96,2453
779,1006	96,2579
780,0649	96,2965
781,0291	96,3684
781,9933	96,4671
782,9576	96,5718
783,9218	96,6564
784,8860	96,7026
785,8503	96,7107
786,8145	96,6995
787,7787	96,6947
788,7430	96,7142
789,7072	96,7573
790,6714	96,8075
791,6357	96,8441
792,5999	96,8581
793,5641	96,8593
794,5284	96,8715
795,4926	96,9182
796,4568	97,0088
797,4211	97,1326
798,3853	97,2646
799,3495	97,3788
800,3138	97,4603
801,2780	97,5097
802,2422	97,5397
803,2065	97,567
804,1707	97,6057
805,1349	97,6647
806,0992	97,7474
807,0634	97,8526
808,0276	97,9745
808,9919	98,1016
809,9561	98,2186
810,9203	98,3094
811,8846	98,3629
812,8488	98,3762
813,8130	98,3554
814,7773	98,3119
815,7415	98,2568
816,7057	98,197
817,6700	98,1355
818,6342	98,0733
819,5984	98,0112
820,5627	97,9482
821,5269	97,8789
822,4911	97,7916
823,4554	97,6722
824,4196	97,5116
825,3839	97,3124
826,3481	97,0889
827,3123	96,8584
828,2766	96,6317
829,2408	96,4088
830,2050	96,186
831,1693	95,9688
832,1335	95,7823
833,0977	95,668
834,0620	95,6692
835,0262	95,8107
835,9904	96,0854
836,9547	96,4557
837,9189	96,8661
838,8831	97,261
839,8474	97,5989
840,8116	97,8591
841,7758	98,0401
842,7401	98,154
843,7043	98,2169
844,6685	98,2416
845,6328	98,2337
846,5970	98,1936
847,5612	98,1236
848,5255	98,0467
849,4897	97,9706
850,4539	97,9179
851,4182	97,9025
852,3824	97,9206
853,3466	97,9504
854,3109	97,9601
855,2751	97,9218
856,2393	97,8222
857,2036	97,6663
858,1678	97,4738
859,1320	97,2705
860,0963	97,0791
861,0605	96,9122
862,0247	96,7687
862,9890	96,6363
863,9532	96,4979
864,9174	96,3403
865,8817	96,1621
866,8459	95,9767
867,8101	95,8092
868,7744	95,6884
869,7386	95,6365
870,7028	95,6592
871,6671	95,7414
872,6313	95,8491
873,5955	95,9395
874,5598	95,9762
875,5240	95,9431
876,4882	95,8508
877,4525	95,7309
878,4167	95,6204
879,3809	95,5476
880,3452	95,5241
881,3094	95,5475
882,2736	95,6104
883,2379	95,7051
884,2021	95,8231
885,1663	95,95
886,1306	96,0651
887,0948	96,1492
888,0590	96,196
889,0233	96,2192
889,9875	96,246
890,9517	96,3015
891,9160	96,3931
892,8802	96,5064
893,8444	96,6152
894,8087	96,6982
895,7729	96,7507
896,7371	96,7835
897,7014	96,8128
898,6656	96,8488
899,6298	96,8929
900,5941	96,9427
901,5583	96,9987
902,5225	97,0662
903,4868	97,1516
904,4510	97,256
905,4152	97,3733
906,3795	97,4938
907,3437	97,6105
908,3079	97,7233
909,2722	97,8364
910,2364	97,952
911,2006	98,0647
912,1649	98,1624
913,1291	98,2312
914,0933	98,2632
915,0576	98,2601
916,0218	98,2333
916,9860	98,1979
917,9503	98,1669
918,9145	98,1465
919,8787	98,1358
920,8430	98,1288
921,8072	98,1185
922,7714	98,1001
923,7357	98,073
924,6999	98,0397
925,6641	98,004
926,6284	97,9674
927,5926	97,9291
928,5568	97,8867
929,5211	97,8383
930,4853	97,7847
931,4495	97,7289
932,4138	97,6745
933,3780	97,623
934,3422	97,5731
935,3065	97,5215
936,2707	97,4651
937,2349	97,4026
938,1992	97,3349
939,1634	97,2651
940,1276	97,1975
941,0919	97,1367
942,0561	97,0859
943,0203	97,0447
943,9846	97,0081
944,9488	96,9672
945,9130	96,9125
946,8773	96,8381
947,8415	96,7449
948,8057	96,6396
949,7700	96,5315
950,7342	96,4281
951,6984	96,3315
952,6627	96,2402
953,6269	96,1502
954,5911	96,0592
955,5554	95,9669
956,5196	95,8744
957,4838	95,7832
958,4481	95,694
959,4123	95,6079
960,3765	95,5272
961,3408	95,455
962,3050	95,3936
963,2692	95,3408
964,2335	95,2896
965,1977	95,2296
966,1619	95,1526
967,1262	95,0574
968,0904	94,9508
969,0546	94,8438
970,0189	94,7441
970,9831	94,651
971,9473	94,5561
972,9116	94,449
973,8758	94,3248
974,8400	94,1878
975,8043	94,0489
976,7685	93,9183
977,7327	93,7988
978,6970	93,6836
979,6612	93,5606
980,6254	93,4189
981,5897	93,2551
982,5539	93,0761
983,5181	92,8948
984,4824	92,7258
985,4466	92,579
986,4108	92,4562
987,3751	92,3508
988,3393	92,2521
989,3035	92,1499
990,2678	92,0396
991,2320	91,9228
992,1962	91,8064
993,1605	91,6993
994,1247	91,6093
995,0889	91,5418
996,0532	91,498
997,0174	91,4745
997,9816	91,4621
998,9459	91,447
999,9101	91,4145
1000,8743	91,3538
1001,8386	91,2613
1002,8028	91,1397
1003,7670	90,9956
1004,7313	90,8375
1005,6955	90,6734
1006,6597	90,5122
1007,6240	90,3622
1008,5882	90,2274
1009,5524	90,1033
1010,5167	89,9765
1011,4809	89,8309
1012,4451	89,6568
1013,4094	89,4572
1014,3736	89,2457
1015,3378	89,0386
1016,3021	88,8484
1017,2663	88,682
1018,2305	88,5448
1019,1948	88,4411
1020,1590	88,3669
1021,1232	88,2992
1022,0875	88,1934
1023,0517	87,9991
1024,0160	87,6902
1024,9802	87,2906
1025,9445	86,8755
1026,9087	86,5393
1027,8729	86,3453
1028,8372	86,2865
1029,8014	86,2829
1030,7656	86,2173
1031,7299	85,9877
1032,6941	85,5473
1033,6583	84,9168
1034,6226	84,1657
1035,5868	83,3808
1036,5510	82,6351
1037,5153	81,9705
1038,4795	81,3944
1039,4437	80,887
1040,4080	80,4164
1041,3722	79,9543
1042,3364	79,4879
1043,3007	79,0224
1044,2649	78,5729
1045,2291	78,1538
1046,1934	77,7712
1047,1576	77,4266
1048,1218	77,1249
1049,0861	76,8801
1050,0503	76,7097
1051,0145	76,621
1051,9788	76,5997
1052,9430	76,613
1053,9072	76,628
1054,8715	76,636
1055,8357	76,6638
1056,7999	76,7606
1057,7642	76,9637
1058,7284	77,2612
1059,6926	77,5774
1060,6569	77,7959
1061,6211	77,8124
1062,5853	77,5926
1063,5496	77,2012
1064,5138	76,7825
1065,4780	76,4975
1066,4423	76,4481
1067,4065	76,6298
1068,3707	76,9407
1069,3350	77,2391
1070,2992	77,4128
1071,2634	77,4217
1072,2277	77,2986
1073,1919	77,1164
1074,1561	76,9473
1075,1204	76,8369
1076,0846	76,8014
1077,0488	76,8403
1078,0131	76,9497
1078,9773	77,1288
1079,9415	77,3781
1080,9058	77,6951
1081,8700	78,0708
1082,8342	78,4889
1083,7985	78,9277
1084,7627	79,3656
1085,7269	79,79
1086,6912	80,2048
1087,6554	80,6302
1088,6196	81,0921
1089,5839	81,6045
1090,5481	82,1569
1091,5123	82,7152
1092,4766	83,2368
1093,4408	83,6909
1094,4050	84,0699
1095,3693	84,3865
1096,3335	84,6601
1097,2977	84,9047
1098,2620	85,1262
1099,2262	85,3297
1100,1904	85,5276
1101,1547	85,7409
1102,1189	85,9901
1103,0831	86,2834
1104,0474	86,6117
1105,0116	86,9533
1105,9758	87,2864
1106,9401	87,5996
1107,9043	87,8949
1108,8685	88,1814
1109,8328	88,467
1110,7970	88,752
1111,7612	89,0304
1112,7255	89,2949
1113,6897	89,5409
1114,6539	89,7685
1115,6182	89,9803
1116,5824	90,1787
1117,5466	90,3648
1118,5109	90,5388
1119,4751	90,7016
1120,4393	90,8552
1121,4036	91,0024
1122,3678	91,1463
1123,3320	91,2898
1124,2963	91,4347
1125,2605	91,5817
1126,2247	91,7291
1127,1890	91,874
1128,1532	92,0135
1129,1174	92,1467
1130,0817	92,2765
1131,0459	92,4078
1132,0101	92,5451
1132,9744	92,6887
1133,9386	92,8328
1134,9028	92,9679
1135,8671	93,0838
1136,8313	93,1748
1137,7955	93,2418
1138,7598	93,2905
1139,7240	93,3279
1140,6882	93,358
1141,6525	93,38
1142,6167	93,3908
1143,5809	93,3885
1144,5452	93,3748
1145,5094	93,355
1146,4736	93,3341
1147,4379	93,3131
1148,4021	93,2881
1149,3663	93,2532
1150,3306	93,2048
1151,2948	93,1455
1152,2590	93,0835
1153,2233	93,0288
1154,1875	92,9882
1155,1517	92,9634
1156,1160	92,9523
1157,0802	92,9516
1158,0444	92,9604
1159,0087	92,9795
1159,9729	93,0101
1160,9371	93,0512
1161,9014	93,099
1162,8656	93,1485
1163,8298	93,195
1164,7941	93,2359
1165,7583	93,2698
1166,7225	93,2952
1167,6868	93,3103
1168,6510	93,3136
1169,6152	93,3055
1170,5795	93,2891
1171,5437	93,2693
1172,5079	93,2518
1173,4722	93,2403
1174,4364	93,236
1175,4006	93,2374
1176,3649	93,2409
1177,3291	93,2421
1178,2933	93,2357
1179,2576	93,2169
1180,2218	93,1826
1181,1860	93,1329
1182,1503	93,0719
1183,1145	93,0068
1184,0787	92,945
1185,0430	92,8915
1186,0072	92,8471
1186,9714	92,8086
1187,9357	92,7714
1188,8999	92,7316
1189,8641	92,6879
1190,8284	92,6405
1191,7926	92,5904
1192,7568	92,538
1193,7211	92,4833
1194,6853	92,427
1195,6495	92,3702
1196,6138	92,3139
1197,5780	92,2572
1198,5422	92,1966
1199,5065	92,1269
1200,4707	92,0434
1201,4349	91,9442
1202,3992	91,8304
1203,3634	91,7054
1204,3276	91,5734
1205,2919	91,4382
1206,2561	91,3024
1207,2203	91,1672
1208,1846	91,0323
1209,1488	90,8958
1210,1130	90,7553
1211,0773	90,6096
1212,0415	90,4585
1213,0057	90,3021
1213,9700	90,1394
1214,9342	89,9675
1215,8984	89,7832
1216,8627	89,5865
1217,8269	89,3812
1218,7911	89,1737
1219,7554	88,9701
1220,7196	88,7737
1221,6838	88,5846
1222,6481	88,4015
1223,6123	88,223
1224,5765	88,0499
1225,5408	87,8844
1226,5050	87,7305
1227,4692	87,5938
1228,4335	87,4811
1229,3977	87,3991
1230,3619	87,3529
1231,3262	87,3452
1232,2904	87,3765
1233,2546	87,4436
1234,2189	87,536
1235,1831	87,6311
1236,1473	87,6953
1237,1116	87,6931
1238,0758	87,6057
1239,0400	87,4463
1240,0043	87,2614
1240,9685	87,1121
1241,9327	87,0437
1242,8970	87,0608
1243,8612	87,1252
1244,8254	87,1787
1245,7897	87,1758
1246,7539	87,1078
1247,7181	87,0021
1248,6824	86,9027
1249,6466	86,8458
1250,6108	86,8449
1251,5751	86,8911
1252,5393	86,9644
1253,5035	87,046
1254,4678	87,1244
1255,4320	87,1966
1256,3962	87,2655
1257,3605	87,3384
1258,3247	87,4244
1259,2889	87,5322
1260,2532	87,6662
1261,2174	87,8239
1262,1816	87,9966
1263,1459	88,1732
1264,1101	88,3443
1265,0743	88,5037
1266,0386	88,6472
1267,0028	88,7721
1267,9670	88,8766
1268,9313	88,9623
1269,8955	89,0352
1270,8597	89,1053
1271,8240	89,1828
1272,7882	89,2737
1273,7524	89,3763
1274,7167	89,4819
1275,6809	89,5782
1276,6451	89,6549
1277,6094	89,7077
1278,5736	89,7399
1279,5378	89,7606
1280,5021	89,7796
1281,4663	89,8018
1282,4305	89,8249
1283,3948	89,8404
1284,3590	89,8395
1285,3232	89,818
1286,2875	89,7797
1287,2517	89,7348
1288,2159	89,6947
1289,1802	89,6654
1290,1444	89,6441
1291,1086	89,622
1292,0729	89,5888
1293,0371	89,5391
1294,0013	89,4737
1294,9656	89,3989
1295,9298	89,3218
1296,8940	89,2471
1297,8583	89,1757
1298,8225	89,1053
1299,7867	89,0337
1300,7510	88,9599
1301,7152	88,8836
1302,6794	88,8058
1303,6437	88,7275
1304,6079	88,6495
1305,5721	88,5731
1306,5364	88,5001
1307,5006	88,4314
1308,4648	88,3665
1309,4291	88,3032
1310,3933	88,2398
1311,3575	88,1768
1312,3218	88,117
1313,2860	88,0635
1314,2502	88,0168
1315,2145	87,9738
1316,1787	87,9301
1317,1429	87,883
1318,1072	87,8343
1319,0714	87,7887
1320,0356	87,7491
1320,9999	87,7141
1321,9641	87,6796
1322,9283	87,6418
1323,8926	87,5993
1324,8568	87,552
1325,8210	87,4996
1326,7853	87,4393
1327,7495	87,3668
1328,7137	87,2786
1329,6780	87,1754
1330,6422	87,0622
1331,6064	86,9461
1332,5707	86,832
1333,5349	86,7176
1334,4991	86,5928
1335,4634	86,4418
1336,4276	86,2519
1337,3918	86,028
1338,3561	85,8057
1339,3203	85,6395
1340,2845	85,5616
1341,2488	85,5565
1342,2130	85,5818
1343,1772	85,6005
1344,1415	85,5922
1345,1057	85,5492
1346,0699	85,4725
1347,0342	85,371
1347,9984	85,2581
1348,9626	85,1464
1349,9269	85,0437
1350,8911	84,952
1351,8553	84,869
1352,8196	84,7909
1353,7838	84,7136
1354,7480	84,6341
1355,7123	84,5512
1356,6765	84,4642
1357,6407	84,3695
1358,6050	84,2564
1359,5692	84,1058
1360,5334	83,9016
1361,4977	83,6523
1362,4619	83,3964
1363,4261	83,1703
1364,3904	82,9761
1365,3546	82,7899
1366,3188	82,5888
1367,2831	82,364
1368,2473	82,1219
1369,2115	81,8763
1370,1758	81,6335
1371,1400	81,3804
1372,1042	81,0884
1373,0685	80,7388
1374,0327	80,3536
1374,9969	79,9973
1375,9612	79,7351
1376,9254	79,5942
1377,8896	79,5674
1378,8539	79,634
1379,8181	79,7707
1380,7823	79,9513
1381,7466	80,1487
1382,7108	80,3438
1383,6750	80,5334
1384,6393	80,7299
1385,6035	80,9537
1386,5677	81,2146
1387,5320	81,4803
1388,4962	81,6776
1389,4604	81,7498
1390,4247	81,7016
1391,3889	81,5827
1392,3531	81,4581
1393,3174	81,3996
1394,2816	81,4785
1395,2458	81,7308
1396,2101	82,1123
1397,1743	82,5107
1398,1385	82,8206
1399,1028	83
1400,0670	83,0665
1401,0313	83,0623
1401,9955	83,0267
1402,9597	82,9884
1403,9240	82,9686
1404,8882	82,9849
1405,8524	83,0453
1406,8167	83,1419
1407,7809	83,2609
1408,7451	83,3983
1409,7094	83,5619
1410,6736	83,7611
1411,6378	83,995
1412,6021	84,2514
1413,5663	84,5173
1414,5305	84,789
1415,4948	85,0653
1416,4590	85,339
1417,4232	85,6026
1418,3875	85,8534
1419,3517	86,0696
1420,3159	86,2089
1421,2802	86,2641
1422,2444	86,2783
1423,2086	86,3026
1424,1729	86,3604
1425,1371	86,4441
1426,1013	86,5276
1427,0656	86,5821
1428,0298	86,5857
1428,9940	86,5334
1429,9583	86,4457
1430,9225	86,3617
1431,8867	86,3195
1432,8510	86,3355
1433,8152	86,3943
1434,7794	86,453
1435,7437	86,4712
1436,7079	86,4422
1437,6721	86,3779
1438,6364	86,2843
1439,6006	86,1796
1440,5648	86,0947
1441,5291	86,0469
1442,4933	86,026
1443,4575	86,0023
1444,4218	85,9445
1445,3860	85,8328
1446,3502	85,6633
1447,3145	85,4441
1448,2787	85,1877
1449,2429	84,905
1450,2072	84,6115
1451,1714	84,3374
1452,1356	84,1217
1453,0999	83,9834
1454,0641	83,888
1455,0283	83,7415
1455,9926	83,4834
1456,9568	83,2537
1457,9210	83,2138
1458,8853	83,2062
1459,8495	83,0673
1460,8137	82,8121
1461,7780	82,4632
1462,7422	81,9715
1463,7064	81,2941
1464,6707	80,5403
1465,6349	79,981
1466,5991	79,83
1467,5634	80,1109
1468,5276	80,7588
1469,4918	81,7237
1470,4561	82,9872
1471,4203	84,54
1472,3845	86,3125
1473,3488	88,058
1474,3130	89,4353
1475,2772	90,3288
1476,2415	90,8769
1477,2057	91,2495
1478,1699	91,5416
1479,1342	91,7884
1480,0984	92,0019
1481,0626	92,191
1482,0269	92,362
1482,9911	92,5142
1483,9553	92,6403
1484,9196	92,7247
1485,8838	92,7381
1486,8480	92,6458
1487,8123	92,4618
1488,7765	92,316
1489,7407	92,3568
1490,7050	92,5487
1491,6692	92,7506
1492,6334	92,902
1493,5977	93,0083
1494,5619	93,0602
1495,5261	93,0154
1496,4904	92,853
1497,4546	92,6349
1498,4188	92,4559
1499,3831	92,3425
1500,3473	92,2901
1501,3115	92,3319
1502,2758	92,5137
1503,2400	92,8293
1504,2042	93,1583
1505,1685	93,2296
1506,1327	92,7635
1507,0969	91,9753
1508,0612	91,5267
1509,0254	91,4559
1509,9896	91,4576
1510,9539	91,4567
1511,9181	91,475
1512,8823	91,5001
1513,8466	91,4839
1514,8108	91,3877
1515,7750	91,225
1516,7393	91,0574
1517,7035	90,9371
1518,6677	90,8506
1519,6320	90,7273
1520,5962	90,5076
1521,5604	90,2078
1522,5247	89,9076
1523,4889	89,6792
1524,4531	89,5489
1525,4174	89,5037
1526,3816	89,5104
1527,3458	89,5364
1528,3101	89,5666
1529,2743	89,5987
1530,2385	89,6172
1531,2028	89,5776
1532,1670	89,4365
1533,1312	89,2162
1534,0955	89,0166
1535,0597	88,9387
1536,0239	89,0191
1536,9882	89,2106
1537,9524	89,3504
1538,9166	89,1478
1539,8809	88,3949
1540,8451	87,488
1541,8093	87,1564
1542,7736	87,3481
1543,7378	87,6447
1544,7020	87,8816
1545,6663	88,0483
1546,6305	88,1576
1547,5947	88,2214
1548,5590	88,2513
1549,5232	88,2555
1550,4874	88,2376
1551,4517	88,2047
1552,4159	88,1782
1553,3801	88,1958
1554,3444	88,2943
1555,3086	88,4745
1556,2728	88,671
1557,2371	88,7996
1558,2013	88,9406
1559,1655	89,2089
1560,1298	89,3241
1561,0940	89,1251
1562,0582	88,8075
1563,0225	88,5774
1563,9867	88,5173
1564,9509	88,612
1565,9152	88,7959
1566,8794	88,9956
1567,8436	89,1707
1568,8079	89,3301
1569,7721	89,4933
1570,7363	89,6515
1571,7006	89,7944
1572,6648	89,933
1573,6290	90,0717
1574,5933	90,195
1575,5575	90,3057
1576,5217	90,4447
1577,4860	90,6074
1578,4502	90,7335
1579,4144	90,8138
1580,3787	90,8924
1581,3429	90,9987
1582,3071	91,1233
1583,2714	91,2371
1584,2356	91,3187
1585,1998	91,3659
1586,1641	91,3894
1587,1283	91,4006
1588,0925	91,4054
1589,0568	91,4065
1590,0210	91,4063
1590,9852	91,4064
1591,9495	91,4062
1592,9137	91,4043
1593,8779	91,4019
1594,8422	91,4037
1595,8064	91,4126
1596,7706	91,4247
1597,7349	91,4293
1598,6991	91,416
1599,6633	91,3812
1600,6276	91,3307
1601,5918	91,276
1602,5560	91,2269
1603,5203	91,1836
1604,4845	91,138
1605,4487	91,0799
1606,4130	91,0025
1607,3772	90,9054
1608,3414	90,7967
1609,3057	90,6919
1610,2699	90,6078
1611,2341	90,5594
1612,1984	90,553
1613,1626	90,5691
1614,1268	90,5459
1615,0911	90,4065
1616,0553	90,1411
1617,0195	89,8405
1617,9838	89,5873
1618,9480	89,3889
1619,9122	89,2268
1620,8765	89,0755
1621,8407	88,8984
1622,8049	88,6751
1623,7692	88,431
1624,7334	88,2118
1625,6976	88,0299
1626,6619	87,8574
1627,6261	87,6618
1628,5903	87,4388
1629,5546	87,2238
1630,5188	87,0701
1631,4830	87,0066
1632,4473	86,9929
1633,4115	86,891
1634,3757	86,5096
1635,3400	85,8045
1636,3042	85,0429
1637,2684	84,4847
1638,2327	84,0872
1639,1969	83,7341
1640,1611	83,3981
1641,1254	83,1055
1642,0896	82,8786
1643,0538	82,6896
1644,0181	82,4257
1644,9823	81,909
1645,9465	81,0601
1646,9108	80,108
1647,8750	79,4275
1648,8392	79,1606
1649,8035	79,2166
1650,7677	79,4027
1651,7319	79,4372
1652,6962	79,0761
1653,6604	78,4497
1654,6246	77,8772
1655,5889	77,4028
1656,5531	77,0114
1657,5173	76,7391
1658,4816	76,5959
1659,4458	76,5456
1660,4100	76,5374
1661,3743	76,5524
1662,3385	76,613
1663,3027	76,7294
1664,2670	76,8771
1665,2312	77,0365
1666,1954	77,2058
1667,1597	77,3821
1668,1239	77,5642
1669,0881	77,7796
1670,0524	78,0711
1671,0166	78,4395
1671,9808	78,8551
1672,9451	79,3124
1673,9093	79,8183
1674,8735	80,346
1675,8378	80,8235
1676,8020	81,1828
1677,7662	81,4275
1678,7305	81,6367
1679,6947	81,9034
1680,6589	82,2781
1681,6232	82,7573
1682,5874	83,3213
1683,5516	83,9627
1684,5159	84,5932
1685,4801	85,0375
1686,4443	85,2751
1687,4086	85,4557
1688,3728	85,7218
1689,3370	86,1251
1690,3013	86,6422
1691,2655	87,2182
1692,2297	87,8017
1693,1940	88,3539
1694,1582	88,8443
1695,1224	89,2566
1696,0867	89,614
1697,0509	90,0007
1698,0151	90,5237
1698,9794	91,1922
1699,9436	91,8471
1700,9078	92,2874
1701,8721	92,4498
1702,8363	92,4311
1703,8005	92,39
1704,7648	92,4533
1705,7290	92,6669
1706,6932	92,9841
1707,6575	93,308
1708,6217	93,5697
1709,5859	93,769
1710,5502	93,9462
1711,5144	94,1345
1712,4786	94,3316
1713,4429	94,4979
1714,4071	94,5794
1715,3713	94,5768
1716,3356	94,6278
1717,2998	94,8873
1718,2640	95,2501
1719,2283	95,4955
1720,1925	95,5871
1721,1567	95,6245
1722,1210	95,6991
1723,0852	95,8403
1724,0494	96,0232
1725,0137	96,1977
1725,9779	96,3216
1726,9421	96,3841
1727,9064	96,4078
1728,8706	96,4311
1729,8348	96,4805
1730,7991	96,5492
1731,7633	96,6039
1732,7275	96,6286
1733,6918	96,6461
1734,6560	96,652
1735,6202	96,6084
1736,5845	96,5257
1737,5487	96,4541
1738,5129	96,4191
1739,4772	96,401
1740,4414	96,3618
1741,4056	96,2796
1742,3699	96,162
1743,3341	96,033
1744,2983	95,9161
1745,2626	95,8232
1746,2268	95,7562
1747,1910	95,72
1748,1553	95,7438
1749,1195	95,8747
1750,0837	96,1123
1751,0480	96,3664
1752,0122	96,537
1752,9764	96,6019
1753,9407	96,6006
1754,9049	96,58
1755,8691	96,5685
1756,8334	96,576
1757,7976	96,601
1758,7618	96,6339
1759,7261	96,6625
1760,6903	96,6788
1761,6545	96,6855
1762,6188	96,6918
1763,5830	96,7067
1764,5472	96,737
1765,5115	96,7951
1766,4757	96,8622
1767,4399	96,9156
1768,4042	96,9225
1769,3684	96,8552
1770,3326	96,7181
1771,2969	96,5696
1772,2611	96,4946
1773,2253	96,5191
1774,1896	96,5896
1775,1538	96,6519
1776,1180	96,6966
1777,0823	96,734
1778,0465	96,7664
1779,0107	96,7891
1779,9750	96,8058
1780,9392	96,8318
1781,9034	96,8788
1782,8677	96,9403
1783,8319	96,9939
1784,7961	97,0169
1785,7604	97,0037
1786,7246	96,9702
1787,6888	96,9402
1788,6531	96,9218
1789,6173	96,8955
1790,5815	96,8342
1791,5458	96,7494
1792,5100	96,6976
1793,4742	96,7079
1794,4385	96,7516
1795,4027	96,8003
1796,3669	96,8523
1797,3312	96,9101
1798,2954	96,9654
1799,2596	97,01
1800,2239	97,05
1801,1881	97,0993
1802,1523	97,1616
1803,1166	97,227
1804,0808	97,2836
1805,0450	97,3242
1806,0093	97,3451
1806,9735	97,3441
1807,9377	97,3241
1808,9020	97,299
1809,8662	97,2939
1810,8304	97,331
1811,7947	97,4116
1812,7589	97,5146
1813,7231	97,6136
1814,6874	97,6885
1815,6516	97,7268
1816,6158	97,725
1817,5801	97,6913
1818,5443	97,6443
1819,5085	97,6042
1820,4728	97,5821
1821,4370	97,5765
1822,4012	97,5778
1823,3655	97,5762
1824,3297	97,5686
1825,2939	97,5546
1826,2582	97,5294
1827,2224	97,4854
1828,1866	97,4237
1829,1509	97,3654
1830,1151	97,3427
1831,0793	97,3674
1832,0436	97,4203
1833,0078	97,4768
1833,9720	97,5249
1834,9363	97,5602
1835,9005	97,5821
1836,8647	97,599
1837,8290	97,6279
1838,7932	97,6848
1839,7574	97,7724
1840,7217	97,8724
1841,6859	97,9433
1842,6501	97,9401
1843,6144	97,8561
1844,5786	97,7411
1845,5428	97,6543
1846,5071	97,6154
1847,4713	97,6173
1848,4355	97,6501
1849,3998	97,7023
1850,3640	97,7571
1851,3282	97,7973
1852,2925	97,8139
1853,2567	97,8086
1854,2209	97,7913
1855,1852	97,7728
1856,1494	97,761
1857,1136	97,7594
1858,0779	97,7687
1859,0421	97,7879
1860,0063	97,8143
1860,9706	97,8427
1861,9348	97,8664
1862,8990	97,88
1863,8633	97,8793
1864,8275	97,8576
1865,7917	97,8049
1866,7560	97,7203
1867,7202	97,633
1868,6844	97,5922
1869,6487	97,6148
1870,6129	97,6662
1871,5771	97,7082
1872,5414	97,7321
1873,5056	97,7461
1874,4698	97,7578
1875,4341	97,7709
1876,3983	97,7891
1877,3625	97,8173
1878,3268	97,8551
1879,2910	97,8945
1880,2552	97,9224
1881,2195	97,9282
1882,1837	97,9122
1883,1479	97,8856
1884,1122	97,8634
1885,0764	97,8532
1886,0406	97,8507
1887,0049	97,8442
1887,9691	97,8269
1888,9333	97,8048
1889,8976	97,791
1890,8618	97,7906
1891,8260	97,7957
1892,7903	97,7944
1893,7545	97,7835
1894,7188	97,7723
1895,6830	97,7777
1896,6472	97,8089
1897,6115	97,8566
1898,5757	97,8958
1899,5399	97,9041
1900,5042	97,8765
1901,4684	97,8293
1902,4326	97,789
1903,3969	97,7741
1904,3611	97,7821
1905,3253	97,7934
1906,2896	97,7882
1907,2538	97,7628
1908,2180	97,735
1909,1823	97,7326
1910,1465	97,7718
1911,1107	97,8447
1912,0750	97,9295
1913,0392	98,0076
1914,0034	98,0695
1914,9677	98,1081
1915,9319	98,1148
1916,8961	98,0839
1917,8604	98,0211
1918,8246	97,9441
1919,7888	97,875
1920,7531	97,8297
1921,7173	97,8115
1922,6815	97,8121
1923,6458	97,8199
1924,6100	97,8314
1925,5742	97,8536
1926,5385	97,8968
1927,5027	97,9598
1928,4669	98,0225
1929,4312	98,0526
1930,3954	98,0268
1931,3596	97,9527
1932,3239	97,8724
1933,2881	97,8415
1934,2523	97,8953
1935,2166	98,025
1936,1808	98,1797
1937,1450	98,2923
1938,1093	98,3125
1939,0735	98,2232
1940,0377	98,0414
1941,0020	97,8111
1941,9662	97,5941
1942,9304	97,449
1943,8947	97,4058
1944,8589	97,4562
1945,8231	97,5668
1946,7874	97,6966
1947,7516	97,8056
1948,7158	97,8642
1949,6801	97,8637
1950,6443	97,8249
1951,6085	97,7908
1952,5728	97,8051
1953,5370	97,8881
1954,5012	98,0254
1955,4655	98,1765
1956,4297	98,2996
1957,3939	98,3752
1958,3582	98,4129
1959,3224	98,4377
1960,2866	98,4647
1961,2509	98,4793
1962,2151	98,4407
1963,1793	98,307
1964,1436	98,0673
1965,1078	97,7626
1966,0720	97,4821
1967,0363	97,3282
1968,0005	97,3613
1968,9647	97,5629
1969,9290	97,8481
1970,8932	98,1114
1971,8574	98,2662
1972,8217	98,2615
1973,7859	98,0831
1974,7501	97,754
1975,7144	97,332
1976,6786	96,9027
1977,6428	96,5561
1978,6071	96,352
1979,5713	96,2969
1980,5355	96,3509
1981,4998	96,46
1982,4640	96,5877
1983,4282	96,7261
1984,3925	96,8832
1985,3567	97,0584
1986,3209	97,2242
1987,2852	97,329
1988,2494	97,3239
1989,2136	97,1977
1990,1779	97,0014
1991,1421	96,8394
1992,1063	96,8205
1993,0706	96,9927
1994,0348	97,3132
1994,9990	97,6751
1995,9633	97,9638
1996,9275	98,1038
1997,8917	98,0839
1998,8560	97,9597
1999,8202	97,8311
2000,7844	97,8001
2001,7487	97,9273
2002,7129	98,2102
2003,6771	98,583
2004,6414	98,9318
2005,6056	99,1216
2006,5698	99,0396
2007,5341	98,6491
2008,4983	98,027
2009,4625	97,3532
2010,4268	96,8472
2011,3910	96,6833
2012,3552	96,9222
2013,3195	97,4815
2014,2837	98,1477
2015,2479	98,6407
2016,2122	98,7307
2017,1764	98,364
2018,1406	97,7052
2019,1049	97,0415
2020,0691	96,6204
2021,0333	96,5386
2021,9976	96,7317
2022,9618	97,0376
2023,9260	97,2885
2024,8903	97,3881
2025,8545	97,3383
2026,8187	97,2099
2027,7830	97,0881
2028,7472	97,0317
2029,7114	97,0623
2030,6757	97,1714
2031,6399	97,3283
2032,6041	97,4805
2033,5684	97,5591
2034,5326	97,5
2035,4968	97,2769
2036,4611	96,9256
2037,4253	96,5375
2038,3895	96,2278
2039,3538	96,0957
2040,3180	96,1913
2041,2822	96,4972
2042,2465	96,9317
2043,2107	97,3723
2044,1749	97,693
2045,1392	97,8011
2046,1034	97,6693
2047,0676	97,3536
2048,0320	96,9816
2048,9961	96,7007
2049,9604	96,613
2050,9246	96,7357
2051,8889	97,0071
2052,8530	97,3202
2053,8174	97,5651
2054,7815	97,6678
2055,7458	97,6143
2056,7100	97,4517
2057,6743	97,2629
2058,6384	97,1266
2059,6028	97,0829
2060,5669	97,1199
2061,5313	97,1837
2062,4954	97,2085
2063,4597	97,1514
2064,4238	97,015
2065,3882	96,8454
2066,3523	96,7064
2067,3167	96,6469
2068,2808	96,6833
2069,2451	96,8005
2070,2092	96,9648
2071,1736	97,1361
2072,1377	97,2778
2073,1021	97,3627
2074,0662	97,379
2075,0305	97,3336
2075,9946	97,2475
2076,9590	97,1455
2077,9231	97,0451
2078,8875	96,9539
2079,8516	96,8767
2080,8159	96,8246
2081,7800	96,8172
2082,7444	96,8715
2083,7085	96,9865
2084,6729	97,1361
2085,6370	97,2789
2086,6013	97,3805
2087,5654	97,4316
2088,5298	97,4498
2089,4939	97,4622
2090,4583	97,4824
2091,4224	97,4999
2092,3867	97,4883
2093,3508	97,4276
2094,3152	97,3228
2095,2793	97,2083
2096,2437	97,132
2097,2078	97,1319
2098,1721	97,2161
2099,1362	97,3597
2100,1006	97,5157
2101,0647	97,6332
2102,0291	97,675
2102,9932	97,6283
2103,9575	97,508
2104,9216	97,3511
2105,8860	97,2046
2106,8501	97,1093
2107,8145	97,0862
2108,7786	97,13
2109,7429	97,2134
2110,7070	97,3008
2111,6714	97,3636
2112,6355	97,3908
2113,5999	97,3884
2114,5640	97,3723
2115,5283	97,3577
2116,4924	97,3532
2117,4568	97,3621
2118,4209	97,3878
2119,3853	97,4371
2120,3494	97,5184
2121,3137	97,6352
2122,2778	97,7787
2123,2422	97,9265
2124,2063	98,0498
2125,1707	98,1267
2126,1348	98,1551
2127,0991	98,1561
2128,0632	98,1657
2129,0276	98,2157
2129,9917	98,3154
2130,9561	98,4416
2131,9202	98,5466
2132,8845	98,5806
2133,8486	98,5199
2134,8130	98,3846
2135,7771	98,2297
2136,7415	98,1145
2137,7056	98,07
2138,6699	98,0846
2139,6340	98,116
2140,5984	98,1171
2141,5625	98,0612
2142,5269	97,9531
2143,4910	97,8259
2144,4553	97,7248
2145,4194	97,6866
2146,3838	97,7195
2147,3479	97,7925
2148,3123	97,8442
2149,2764	97,8128
2150,2407	97,6762
2151,2048	97,4764
2152,1692	97,3082
2153,1333	97,2715
2154,0977	97,4122
2155,0618	97,6811
2156,0261	97,9345
2156,9902	97,9856
2157,9546	97,7025
2158,9187	97,1056
2159,8831	96,3715
2160,8472	95,7178
2161,8115	95,2793
2162,7756	95,0792
2163,7400	95,0747
2164,7041	95,2101
2165,6685	95,4434
2166,6326	95,7509
2167,5969	96,1207
2168,5610	96,5401
2169,5254	96,9831
2170,4895	97,401
2171,4539	97,725
2172,4180	97,8861
2173,3823	97,8506
2174,3464	97,6504
2175,3108	97,3844
2176,2749	97,1765
2177,2393	97,1131
2178,2034	97,1963
2179,1677	97,3452
2180,1318	97,4443
2181,0962	97,4103
2182,0603	97,238
2183,0247	96,9962
2183,9888	96,7793
2184,9531	96,6516
2185,9172	96,6224
2186,8816	96,662
2187,8457	96,7336
2188,8101	96,8166
2189,7742	96,9052
2190,7385	96,9931
2191,7026	97,0621
2192,6670	97,0881
2193,6311	97,0602
2194,5955	96,995
2195,5596	96,934
2196,5239	96,9212
2197,4880	96,9769
2198,4524	97,0833
2199,4165	97,1909
2200,3809	97,2428
2201,3450	97,203
2202,3093	97,0752
2203,2734	96,9039
2204,2378	96,757
2205,2019	96,6987
2206,1663	96,7646
2207,1304	96,9465
2208,0947	97,1948
2209,0588	97,4363
2210,0232	97,6029
2210,9873	97,6592
2211,9517	97,6157
2212,9158	97,5216
2213,8801	97,4401
2214,8442	97,4188
2215,8086	97,4698
2216,7727	97,568
2217,7371	97,6669
2218,7012	97,724
2219,6655	97,7212
2220,6296	97,6702
2221,5940	97,6007
2222,5581	97,5415
2223,5225	97,5039
2224,4866	97,4792
2225,4509	97,4454
2226,4150	97,3811
2227,3794	97,2763
2228,3435	97,1379
2229,3079	96,9902
2230,2720	96,8686
2231,2363	96,81
2232,2004	96,8389
2233,1648	96,9544
2234,1289	97,1243
2235,0933	97,2929
2236,0574	97,4024
2237,0217	97,4179
2237,9858	97,3428
2238,9502	97,2144
2239,9143	97,0836
2240,8787	96,991
2241,8428	96,952
2242,8071	96,9554
2243,7712	96,9735
2244,7356	96,9758
2245,6997	96,9398
2246,6641	96,8561
2247,6282	96,7293
2248,5925	96,5734
2249,5566	96,4055
2250,5210	96,2387
2251,4851	96,077
2252,4495	95,9157
2253,4136	95,7474
2254,3779	95,5684
2255,3420	95,381
2256,3064	95,1907
2257,2705	95,0008
2258,2349	94,8106
2259,1990	94,6179
2260,1633	94,4243
2261,1274	94,2358
2262,0918	94,0589
2263,0559	93,895
2264,0203	93,7404
2264,9844	93,5921
2265,9487	93,4558
2266,9128	93,347
2267,8772	93,2825
2268,8413	93,267
2269,8057	93,2852
2270,7698	93,307
2271,7341	93,3033
2272,6982	93,2637
2273,6626	93,2049
2274,6267	93,1631
2275,5911	93,1779
2276,5552	93,2756
2277,5195	93,4603
2278,4836	93,7119
2279,4480	93,9898
2280,4121	94,2385
2281,3765	94,3939
2282,3406	94,3944
2283,3049	94,1944
2284,2690	93,7785
2285,2334	93,1678
2286,1975	92,4143
2287,1619	91,582
2288,1260	90,7228
2289,0903	89,8599
2290,0544	88,9895
2291,0188	88,0975
2291,9829	87,1815
2292,9473	86,2596
2293,9114	85,3623
2294,8757	84,512
2295,8398	83,7075
2296,8042	82,9253
2297,7683	82,1375
2298,7327	81,3318
2299,6968	80,5167
2300,6611	79,704
2301,6252	78,8811
2302,5896	77,9941
2303,5537	76,9585
2304,5181	75,6951
2305,4822	74,1734
2306,4465	72,4391
2307,4106	70,609
2308,3750	68,8352
2309,3391	67,2538
2310,3035	65,938
2311,2676	64,876
2312,2319	63,9766
2313,1960	63,1031
2314,1604	62,1203
2315,1245	60,935
2316,0889	59,515
2317,0530	57,8834
2318,0173	56,096
2318,9814	54,216
2319,9458	52,2976
2320,9099	50,3835
2321,8743	48,5132
2322,8384	46,7298
2323,8027	45,0756
2324,7668	43,5841
2325,7312	42,2755
2326,6953	41,1589
2327,6597	40,2339
2328,6238	39,4843
2329,5881	38,8703
2330,5522	38,3313
2331,5166	37,8059
2332,4807	37,2591
2333,4451	36,6928
2334,4092	36,1335
2335,3735	35,6094
2336,3376	35,1348
2337,3020	34,7002
2338,2661	34,2729
2339,2305	33,8156
2340,1946	33,3441
2341,1589	33,019
2342,1230	33,2076
2343,0874	34,3775
2344,0515	36,7399
2345,0159	39,9233
2345,9800	43,1309
2346,9443	45,6295
2347,9084	47,0152
2348,8728	47,1535
2349,8369	46,0417
2350,8013	43,7539
2351,7654	40,487
2352,7297	36,6433
2353,6938	32,8106
2354,6582	29,5306
2355,6223	27,0145
2356,5867	25,1391
2357,5508	23,7191
2358,5151	22,7142
2359,4792	22,1897
2360,4436	22,1612
2361,4077	22,5348
2362,3721	23,1913
2363,3362	24,0842
2364,3005	25,2484
2365,2646	26,7364
2366,2290	28,5674
2367,1931	30,729
2368,1575	33,2079
2369,1216	36,003
2370,0859	39,1125
2371,0500	42,5145
2372,0144	46,1614
2372,9785	49,9866
2373,9429	53,9142
2374,9070	57,8671
2375,8713	61,7749
2376,8354	65,5832
2377,7998	69,261
2378,7639	72,8005
2379,7283	76,2079
2380,6924	79,4889
2381,6567	82,6332
2382,6208	85,6048
2383,5852	88,3439
2384,5493	90,7775
2385,5137	92,8384
2386,4778	94,4858
2387,4421	95,7188
2388,4063	96,5783
2389,3706	97,1362
2390,3347	97,4767
2391,2991	97,6781
2392,2632	97,8004
2393,2275	97,8825
2394,1917	97,9443
2395,1560	97,992
2396,1201	98,0242
2397,0845	98,036
2398,0486	98,0285
2399,0129	98,0052
2399,9771	97,9735
2400,9414	97,9418
2401,9055	97,916
2402,8699	97,8987
2403,8340	97,8898
2404,7983	97,8881
2405,7625	97,8912
2406,7268	97,8945
2407,6909	97,8913
2408,6553	97,8743
2409,6194	97,8405
2410,5837	97,7941
2411,5479	97,7456
2412,5122	97,707
2413,4763	97,6856
2414,4407	97,6803
2415,4048	97,6839
2416,3691	97,6878
2417,3333	97,6872
2418,2976	97,682
2419,2617	97,6749
2420,2261	97,6676
2421,1902	97,6594
2422,1545	97,6476
2423,1187	97,6294
2424,0830	97,6036
2425,0471	97,5705
2426,0115	97,5316
2426,9756	97,4902
2427,9399	97,4516
2428,9041	97,4229
2429,8684	97,4099
2430,8325	97,4141
2431,7969	97,43
2432,7610	97,448
2433,7253	97,4594
2434,6895	97,4618
2435,6538	97,4601
2436,6179	97,4621
2437,5823	97,4717
2438,5464	97,4857
2439,5107	97,4959
2440,4749	97,4959
2441,4392	97,4866
2442,4033	97,4763
2443,3677	97,4743
2444,3318	97,4846
2445,2961	97,5025
2446,2603	97,5184
2447,2246	97,524
2448,1887	97,518
2449,1531	97,5055
2450,1172	97,4943
2451,0815	97,4887
2452,0457	97,4883
2453,0100	97,4884
2453,9741	97,4844
2454,9385	97,475
2455,9026	97,4643
2456,8669	97,4605
2457,8311	97,4717
2458,7954	97,5012
2459,7595	97,5437
2460,7239	97,5861
2461,6880	97,6135
2462,6523	97,6173
2463,6165	97,6008
2464,5808	97,5785
2465,5449	97,5675
2466,5093	97,5781
2467,4734	97,6084
2468,4377	97,646
2469,4019	97,676
2470,3662	97,6892
2471,3303	97,6854
2472,2947	97,6711
2473,2588	97,6545
2474,2231	97,6411
2475,1873	97,6324
2476,1516	97,6266
2477,1157	97,6205
2478,0801	97,6118
2479,0442	97,5996
2480,0085	97,5854
2480,9727	97,5715
2481,9370	97,5598
2482,9011	97,5497
2483,8655	97,5379
2484,8296	97,5203
2485,7939	97,4948
2486,7581	97,4638
2487,7224	97,4343
2488,6865	97,4151
2489,6509	97,414
2490,6150	97,4348
2491,5793	97,4759
2492,5435	97,5294
2493,5078	97,583
2494,4719	97,6229
2495,4363	97,6395
2496,4004	97,6317
2497,3647	97,6082
2498,3289	97,5832
2499,2932	97,5686
2500,2573	97,5679
2501,2217	97,5749
2502,1858	97,5788
2503,1501	97,5718
2504,1143	97,5534
2505,0786	97,5296
2506,0427	97,5085
2507,0071	97,4954
2507,9712	97,4911
2508,9355	97,4933
2509,8997	97,4987
2510,8640	97,5054
2511,8281	97,514
2512,7925	97,5275
2513,7566	97,5498
2514,7209	97,5817
2515,6851	97,6184
2516,6494	97,6489
2517,6135	97,661
2518,5779	97,6493
2519,5420	97,621
2520,5063	97,5941
2521,4705	97,5873
2522,4348	97,6075
2523,3989	97,6446
2524,3633	97,6766
2525,3274	97,6834
2526,2917	97,6586
2527,2559	97,6139
2528,2202	97,5707
2529,1843	97,5489
2530,1487	97,5565
2531,1128	97,5888
2532,0771	97,6327
2533,0413	97,6734
2534,0056	97,6996
2534,9697	97,7054
2535,9341	97,6906
2536,8982	97,6602
2537,8625	97,6233
2538,8267	97,5907
2539,7910	97,5712
2540,7551	97,568
2541,7195	97,5764
2542,6836	97,5857
2543,6479	97,5834
2544,6121	97,5615
2545,5764	97,5214
2546,5405	97,4749
2547,5049	97,439
2548,4690	97,4274
2549,4333	97,4423
2550,3975	97,4726
2551,3618	97,499
2552,3259	97,505
2553,2903	97,4858
2554,2544	97,4508
2555,2188	97,4176
2556,1829	97,4022
2557,1472	97,4102
2558,1113	97,4358
2559,0757	97,4655
2560,0398	97,486
2561,0042	97,4888
2561,9683	97,4726
2562,9326	97,442
2563,8967	97,4042
2564,8611	97,3674
2565,8252	97,3379
2566,7896	97,32
2567,7537	97,3146
2568,7180	97,3195
2569,6821	97,3302
2570,6465	97,3415
2571,6106	97,3496
2572,5750	97,353
2573,5391	97,3523
2574,5034	97,3487
2575,4675	97,3425
2576,4319	97,3324
2577,3960	97,3173
2578,3604	97,2986
2579,3245	97,2811
2580,2888	97,2716
2581,2529	97,2754
2582,2173	97,2919
2583,1814	97,3141
2584,1458	97,3313
2585,1099	97,3346
2586,0742	97,3203
2587,0383	97,2905
2588,0027	97,2512
2588,9668	97,2089
2589,9312	97,1692
2590,8953	97,1368
2591,8596	97,1146
2592,8237	97,1029
2593,7881	97,0982
2594,7522	97,0938
2595,7166	97,0836
2596,6807	97,0658
2597,6450	97,0442
2598,6091	97,0255
2599,5735	97,0141
2600,5376	97,0085
2601,5020	97,0024
2602,4661	96,9893
2603,4304	96,9676
2604,3945	96,9416
2605,3589	96,9186
2606,3230	96,9037
2607,2874	96,8976
2608,2515	96,8966
2609,2158	96,8965
2610,1799	96,8944
2611,1443	96,8899
2612,1084	96,8829
2613,0728	96,8729
2614,0369	96,8587
2615,0012	96,8389
2615,9653	96,8132
2616,9297	96,7825
2617,8938	96,749
2618,8582	96,7166
2619,8223	96,6906
2620,7866	96,677
2621,7507	96,6801
2622,7151	96,6996
2623,6792	96,7288
2624,6436	96,7566
2625,6077	96,7713
2626,5720	96,7656
2627,5361	96,7393
2628,5005	96,6979
2629,4646	96,6502
2630,4290	96,604
2631,3931	96,5647
2632,3574	96,5354
2633,3215	96,5173
2634,2859	96,5102
2635,2500	96,5113
2636,2144	96,5152
2637,1785	96,5153
2638,1428	96,5067
2639,1069	96,489
2640,0713	96,4667
2641,0354	96,4467
2641,9998	96,4344
2642,9639	96,4308
2643,9282	96,4327
2644,8923	96,4348
2645,8567	96,4334
2646,8208	96,4277
2647,7852	96,4192
2648,7493	96,4103
2649,7136	96,4031
2650,6777	96,3984
2651,6421	96,3966
2652,6062	96,3972
2653,5706	96,3984
2654,5347	96,3974
2655,4990	96,3917
2656,4631	96,3809
2657,4275	96,3688
2658,3916	96,3618
2659,3560	96,367
2660,3201	96,388
2661,2844	96,4228
2662,2485	96,4645
2663,2129	96,5037
2664,1770	96,5318
2665,1414	96,5438
2666,1055	96,5396
2667,0698	96,5228
2668,0339	96,4997
2668,9983	96,4776
2669,9624	96,462
2670,9268	96,4559
2671,8909	96,4585
2672,8552	96,4664
2673,8193	96,4752
2674,7837	96,4808
2675,7478	96,4805
2676,7122	96,4735
2677,6763	96,4601
2678,6406	96,4417
2679,6047	96,4203
2680,5691	96,3981
2681,5332	96,3774
2682,4976	96,3608
2683,4617	96,3501
2684,4260	96,3464
2685,3901	96,3491
2686,3545	96,356
2687,3186	96,3633
2688,2830	96,3674
2689,2471	96,3656
2690,2114	96,3583
2691,1755	96,3483
2692,1399	96,3388
2693,1040	96,3322
2694,0684	96,328
2695,0325	96,3242
2695,9968	96,3182
2696,9609	96,309
2697,9253	96,2968
2698,8894	96,283
2699,8538	96,2689
2700,8179	96,2556
2701,7822	96,2432
2702,7463	96,2314
2703,7107	96,219
2704,6748	96,2039
2705,6392	96,1836
2706,6033	96,1565
2707,5676	96,1235
2708,5317	96,0878
2709,4961	96,0538
2710,4602	96,0243
2711,4246	95,9992
2712,3887	95,9752
2713,3530	95,9486
2714,3171	95,9178
2715,2815	95,8844
2716,2456	95,8527
2717,2100	95,8262
2718,1741	95,8054
2719,1384	95,787
2720,1025	95,7659
2721,0669	95,7389
2722,0310	95,7061
2722,9954	95,6713
2723,9595	95,6395
2724,9238	95,6139
2725,8879	95,5942
2726,8523	95,5774
2727,8164	95,5589
2728,7808	95,535
2729,7449	95,5039
2730,7092	95,4664
2731,6733	95,425
2732,6377	95,3837
2733,6018	95,346
2734,5662	95,3144
2735,5303	95,2892
2736,4946	95,2682
2737,4587	95,248
2738,4231	95,2253
2739,3872	95,1983
2740,3516	95,1672
2741,3157	95,1338
2742,2800	95,1008
2743,2441	95,0703
2744,2085	95,0435
2745,1726	95,0199
2746,1370	94,9975
2747,1011	94,9736
2748,0654	94,9458
2749,0295	94,9136
2749,9939	94,8788
2750,9580	94,8444
2751,9224	94,8137
2752,8865	94,7873
2753,8508	94,7625
2754,8149	94,7348
2755,7793	94,7009
2756,7434	94,6606
2757,7078	94,6177
2758,6719	94,5779
2759,6362	94,5456
2760,6003	94,5218
2761,5647	94,5038
2762,5288	94,4871
2763,4932	94,4675
2764,4573	94,443
2765,4216	94,4138
2766,3857	94,3817
2767,3501	94,3482
2768,3142	94,3143
2769,2786	94,2796
2770,2427	94,2427
2771,2070	94,2022
2772,1711	94,1581
2773,1355	94,1127
2774,0996	94,0705
2775,0640	94,0354
2776,0281	94,0073
2776,9924	93,9812
2777,9565	93,9478
2778,9209	93,8986
2779,8850	93,8308
2780,8494	93,75
2781,8135	93,668
2782,7778	93,5967
2783,7419	93,5422
2784,7063	93,5025
2785,6704	93,4689
2786,6348	93,4314
2787,5989	93,3829
2788,5632	93,3215
2789,5273	93,2498
2790,4917	93,1725
2791,4558	93,0936
2792,4202	93,0156
2793,3843	92,9388
2794,3486	92,8619
2795,3127	92,7828
2796,2771	92,6998
2797,2412	92,6122
2798,2056	92,521
2799,1697	92,4288
2800,1340	92,3383
2801,0981	92,2517
2802,0625	92,1694
2803,0266	92,0901
2803,9910	92,011
2804,9551	91,9289
2805,9194	91,8408
2806,8835	91,7451
2807,8479	91,6424
2808,8120	91,5345
2809,7764	91,4245
2810,7405	91,3138
2811,7048	91,2012
2812,6689	91,082
2813,6333	90,9498
2814,5974	90,7994
2815,5618	90,6295
2816,5259	90,4443
2817,4902	90,2517
2818,4543	90,0599
2819,4187	89,8729
2820,3828	89,6889
2821,3472	89,5009
2822,3113	89,3008
2823,2756	89,0827
2824,2397	88,8446
2825,2041	88,5878
2826,1682	88,3128
2827,1326	88,0169
2828,0967	87,6927
2829,0610	87,331
2830,0251	86,9235
2830,9895	86,4659
2831,9536	85,9578
2832,9180	85,399
2833,8821	84,7854
2834,8464	84,1053
2835,8105	83,3394
2836,7749	82,4632
2837,7390	81,4497
2838,7034	80,2718
2839,6675	78,9035
2840,6318	77,3211
2841,5959	75,5076
2842,5603	73,461
2843,5244	71,2072
2844,4888	68,8158
2845,4529	66,4136
2846,4172	64,1867
2847,3813	62,3606
2848,3457	61,1504
2849,3098	60,6955
2850,2742	61,0115
2851,2383	61,9887
2852,2026	63,4373
2853,1667	65,1504
2854,1311	66,9522
2855,0952	68,7197
2856,0596	70,3825
2857,0237	71,9109
2857,9880	73,2994
2858,9521	74,5524
2859,9165	75,674
2860,8806	76,6625
2861,8450	77,51
2862,8091	78,2057
2863,7734	78,741
2864,7375	79,1153
2865,7019	79,3393
2866,6660	79,4354
2867,6304	79,4348
2868,5945	79,3729
2869,5588	79,2847
2870,5229	79,2004
2871,4873	79,1422
2872,4514	79,1213
2873,4158	79,1366
2874,3799	79,175
2875,3442	79,2149
2876,3083	79,2307
2877,2727	79,199
2878,2368	79,1028
2879,2012	78,9342
2880,1653	78,6951
2881,1296	78,3956
2882,0938	78,0521
2883,0581	77,6828
2884,0222	77,3034
2884,9866	76,923
2885,9507	76,5415
2886,9150	76,1504
2887,8792	75,7372
2888,8435	75,2918
2889,8076	74,8132
2890,7720	74,3123
2891,7361	73,8068
2892,7004	73,3116
2893,6646	72,8261
2894,6289	72,3302
2895,5930	71,7907
2896,5574	71,1801
2897,5215	70,4955
2898,4858	69,7659
2899,4500	69,041
2900,4143	68,3667
2901,3784	67,7592
2902,3428	67,1948
2903,3069	66,6187
2904,2712	65,9658
2905,2354	65,1821
2906,1997	64,2337
2907,1638	63,106
2908,1282	61,8008
2909,0923	60,3357
2910,0566	58,7493
2911,0208	57,1051
2911,9851	55,4901
2912,9492	54,0034
2913,9136	52,7422
2914,8777	51,7859
2915,8420	51,1857
2916,8062	50,9607
2917,7705	51,0991
2918,7346	51,566
2919,6990	52,3128
2920,6631	53,2852
2921,6274	54,4294
2922,5916	55,6956
2923,5559	57,0395
2924,5200	58,4241
2925,4844	59,8211
2926,4485	61,2108
2927,4128	62,5816
2928,3770	63,9268
2929,3413	65,2422
2930,3054	66,5238
2931,2698	67,7679
2932,2339	68,9718
2933,1982	70,1349
2934,1624	71,2573
2935,1267	72,3383
2936,0908	73,3735
2937,0552	74,354
2938,0193	75,2675
2938,9836	76,1016
2939,9478	76,8479
2940,9121	77,505
2941,8762	78,0778
2942,8406	78,5742
2943,8047	78,9986
2944,7690	79,3484
2945,7332	79,612
2946,6975	79,7743
2947,6616	79,8227
2948,6260	79,7546
2949,5901	79,5807
2950,5544	79,3246
2951,5186	79,0202
2952,4829	78,7071
2953,4470	78,4248
2954,4114	78,2079
2955,3755	78,0801
2956,3398	78,0519
2957,3040	78,1206
2958,2683	78,274
2959,2324	78,4944
2960,1968	78,7627
2961,1609	79,0598
2962,1252	79,3663
2963,0894	79,6645
2964,0537	79,9405
2965,0178	80,188
2965,9822	80,4099
2966,9463	80,6163
2967,9106	80,8211
2968,8748	81,0369
2969,8391	81,2719
2970,8032	81,5286
2971,7676	81,8036
2972,7317	82,0879
2973,6960	82,3684
2974,6602	82,6312
2975,6245	82,8653
2976,5886	83,0663
2977,5530	83,2379
2978,5171	83,3895
2979,4814	83,5315
2980,4456	83,6682
2981,4099	83,7932
2982,3740	83,8885
2983,3384	83,9322
2984,3025	83,9126
2985,2668	83,8429
2986,2310	83,7681
2987,1953	83,7544
2988,1594	83,8639
2989,1238	84,1236
2990,0879	84,5094
2991,0522	84,9546
2992,0164	85,3792
2992,9807	85,7255
2993,9448	85,9782
2994,9092	86,1623
2995,8733	86,3202
2996,8376	86,4861
2997,8018	86,6717
2998,7661	86,87
2999,7302	87,0695
3000,6946	87,2662
3001,6587	87,4663
3002,6230	87,6797
3003,5872	87,9112
3004,5515	88,1565
3005,5156	88,4054
3006,4800	88,6484
3007,4441	88,8817
3008,4084	89,1072
3009,3726	89,329
3010,3369	89,5491
3011,3010	89,7669
3012,2654	89,9798
3013,2295	90,1863
3014,1938	90,3862
3015,1580	90,5801
3016,1223	90,7684
3017,0864	90,9502
3018,0508	91,125
3019,0149	91,2937
3019,9792	91,4595
3020,9434	91,6257
3021,9077	91,7937
3022,8718	91,9606
3023,8362	92,1199
3024,8003	92,2639
3025,7646	92,3863
3026,7288	92,4851
3027,6931	92,5626
3028,6572	92,6249
3029,6216	92,6807
3030,5857	92,7396
3031,5500	92,8099
3032,5142	92,8964
3033,4785	92,9978
3034,4426	93,1076
3035,4070	93,2163
3036,3711	93,3155
3037,3354	93,4008
3038,2996	93,4727
3039,2639	93,5344
3040,2280	93,5884
3041,1924	93,6337
3042,1565	93,6659
3043,1208	93,6802
3044,0850	93,6756
3045,0493	93,6574
3046,0134	93,6359
3046,9778	93,6222
3047,9419	93,6233
3048,9063	93,639
3049,8704	93,6628
3050,8347	93,6853
3051,7988	93,6985
3052,7632	93,6986
3053,7273	93,6867
3054,6917	93,6673
3055,6558	93,6469
3056,6201	93,6319
3057,5842	93,6261
3058,5486	93,6297
3059,5127	93,6383
3060,4771	93,6451
3061,4412	93,6441
3062,4055	93,6337
3063,3696	93,6188
3064,3340	93,6096
3065,2981	93,6167
3066,2625	93,6444
3067,2266	93,6873
3068,1909	93,7314
3069,1550	93,7613
3070,1194	93,7679
3071,0835	93,7532
3072,0479	93,7282
3073,0120	93,7071
3073,9763	93,6992
3074,9404	93,7043
3075,9048	93,7149
3076,8689	93,7216
3077,8333	93,7193
3078,7974	93,7095
3079,7617	93,6977
3080,7258	93,6893
3081,6902	93,6871
3082,6543	93,6908
3083,6187	93,6997
3084,5828	93,7133
3085,5471	93,7303
3086,5112	93,748
3087,4756	93,762
3088,4397	93,7681
3089,4041	93,7651
3090,3682	93,7555
3091,3325	93,7441
3092,2966	93,7354
3093,2610	93,7319
3094,2251	93,7338
3095,1895	93,7382
3096,1536	93,7402
3097,1179	93,7336
3098,0820	93,713
3099,0464	93,678
3100,0105	93,6351
3100,9749	93,5972
3101,9390	93,5771
3102,9033	93,5805
3103,8674	93,6013
3104,8318	93,6249
3105,7959	93,6361
3106,7603	93,6275
3107,7244	93,6024
3108,6887	93,5718
3109,6528	93,5458
3110,6172	93,5273
3111,5813	93,5105
3112,5457	93,4859
3113,5098	93,4471
3114,4741	93,3961
3115,4382	93,3438
3116,4026	93,3047
3117,3667	93,2893
3118,3311	93,2981
3119,2952	93,3201
3120,2595	93,3376
3121,2236	93,3352
3122,1880	93,3072
3123,1521	93,2614
3124,1165	93,2148
3125,0806	93,1835
3126,0449	93,1745
3127,0090	93,1822
3127,9734	93,1934
3128,9375	93,1959
3129,9019	93,1859
3130,8660	93,1692
3131,8303	93,1556
3132,7944	93,1511
3133,7588	93,1533
3134,7229	93,1532
3135,6873	93,1421
3136,6514	93,1172
3137,6157	93,0832
3138,5798	93,0482
3139,5442	93,0175
3140,5083	92,9916
3141,4727	92,967
3142,4368	92,941
3143,4011	92,9147
3144,3652	92,8926
3145,3296	92,8796
3146,2937	92,8774
3147,2581	92,884
3148,2222	92,8955
3149,1865	92,9065
3150,1506	92,9111
3151,1150	92,9033
3152,0791	92,8783
3153,0435	92,8366
3154,0076	92,7854
3154,9719	92,7368
3155,9360	92,7012
3156,9004	92,6806
3157,8645	92,667
3158,8289	92,6477
3159,7930	92,6151
3160,7573	92,572
3161,7214	92,5307
3162,6858	92,5046
3163,6499	92,4993
3164,6143	92,5085
3165,5784	92,5182
3166,5427	92,515
3167,5068	92,4927
3168,4712	92,4551
3169,4353	92,4367
3170,3997	92,3985
3171,3638	92,3695
3172,3281	92,3468
3173,2922	92,3216
3174,2566	92,2851
3175,2207	92,2344
3176,1851	92,1753
3177,1492	92,12
3178,1135	92,0801
3179,0776	92,0589
3180,0420	92,0487
3181,0061	92,0365
3181,9705	92,0121
3182,9346	91,9744
3183,8989	91,9312
3184,8630	91,8926
3185,8274	91,864
3186,7915	91,8426
3187,7559	91,8205
3188,7200	91,7911
3189,6843	91,7542
3190,6484	91,7149
3191,6128	91,6797
3192,5769	91,6518
3193,5413	91,6295
3194,5054	91,6088
3195,4697	91,5874
3196,4338	91,5663
3197,3982	91,5479
3198,3623	91,5321
3199,3267	91,5149
3200,2908	91,4901
3201,2551	91,4542
3202,2192	91,4102
3203,1836	91,3666
3204,1477	91,3324
3205,1121	91,3105
3206,0762	91,2952
3207,0405	91,2759
3208,0046	91,2434
3208,9690	91,197
3209,9331	91,1454
3210,8975	91,1013
3211,8616	91,0742
3212,8259	91,0647
3213,7900	91,0648
3214,7544	91,0619
3215,7185	91,045
3216,6829	91,0101
3217,6470	90,9612
3218,6113	90,9093
3219,5754	90,8682
3220,5398	90,8482
3221,5039	90,8515
3222,4683	90,871
3223,4324	90,8931
3224,3967	90,9039
3225,3608	90,8948
3226,3252	90,8646
3227,2893	90,8184
3228,2537	90,7637
3229,2178	90,7069
3230,1821	90,6517
3231,1462	90,6006
3232,1106	90,5558
3233,0747	90,5198
3234,0391	90,4938
3235,0032	90,4766
3235,9675	90,4645
3236,9316	90,4519
3237,8960	90,4343
3238,8601	90,4096
3239,8245	90,3791
3240,7886	90,3466
3241,7529	90,3172
3242,7170	90,2949
3243,6814	90,2817
3244,6455	90,2765
3245,6099	90,2752
3246,5740	90,272
3247,5383	90,2616
3248,5024	90,2411
3249,4668	90,2104
3250,4309	90,1727
3251,3953	90,1341
3252,3594	90,1015
3253,3237	90,0808
3254,2878	90,0745
3255,2522	90,0817
3256,2163	90,0986
3257,1807	90,1205
3258,1448	90,1422
3259,1091	90,1586
3260,0732	90,1645
3261,0376	90,1561
3262,0017	90,1332
3262,9661	90,1006
3263,9302	90,0672
3264,8945	90,0424
3265,8586	90,0314
3266,8230	90,0335
3267,7871	90,0422
3268,7515	90,0488
3269,7156	90,0461
3270,6799	90,0305
3271,6440	90,0032
3272,6084	89,9691
3273,5725	89,9353
3274,5369	89,9098
3275,5010	89,8988
3276,4653	89,9048
3277,4294	89,9249
3278,3938	89,9518
3279,3579	89,9749
3280,3223	89,9838
3281,2864	89,972
3282,2507	89,9396
3283,2148	89,8942
3284,1792	89,8478
3285,1433	89,8116
3286,1077	89,7912
3287,0718	89,7852
3288,0361	89,7885
3289,0002	89,797
3289,9646	89,8108
3290,9287	89,8326
3291,8931	89,8622
3292,8572	89,8929
3293,8215	89,9128
3294,7856	89,9125
3295,7500	89,8922
3296,7141	89,8637
3297,6785	89,8437
3298,6426	89,8442
3299,6069	89,866
3300,5710	89,8998
3301,5354	89,9344
3302,4995	89,9638
3303,4639	89,9891
3304,4280	90,0132
3305,3923	90,0349
3306,3564	90,0474
3307,3208	90,0429
3308,2849	90,0192
3309,2493	89,9834
3310,2134	89,9478
3311,1777	89,923
3312,1418	89,9128
3313,1062	89,914
3314,0703	89,922
3315,0347	89,9352
3315,9988	89,9557
3316,9631	89,9856
3317,9272	90,0232
3318,8916	90,0614
3319,8557	90,0909
3320,8201	90,1056
3321,7842	90,1058
3322,7485	90,0984
3323,7126	90,0932
3324,6770	90,0978
3325,6411	90,114
3326,6055	90,138
3327,5696	90,1633
3328,5339	90,1842
3329,4980	90,1981
3330,4624	90,2054
3331,4265	90,2079
3332,3909	90,2058
3333,3550	90,1988
3334,3193	90,1868
3335,2834	90,1724
3336,2478	90,1609
3337,2119	90,1574
3338,1763	90,1639
3339,1404	90,1776
3340,1047	90,1929
3341,0688	90,2055
3342,0332	90,2143
3342,9973	90,2215
3343,9617	90,2297
3344,9258	90,2393
3345,8901	90,249
3346,8542	90,2582
3347,8186	90,2689
3348,7827	90,2856
3349,7471	90,3109
3350,7112	90,3428
3351,6755	90,3741
3352,6396	90,3957
3353,6040	90,403
3354,5681	90,3984
3355,5325	90,39
3356,4966	90,3865
3357,4609	90,3921
3358,4250	90,4051
3359,3894	90,4198
3360,3535	90,4311
3361,3179	90,4371
3362,2820	90,4404
3363,2463	90,4459
3364,2104	90,4584
3365,1748	90,4797
3366,1389	90,5082
3367,1033	90,5396
3368,0674	90,5687
3369,0317	90,5917
3369,9958	90,6067
3370,9602	90,6139
3371,9243	90,614
3372,8887	90,6091
3373,8528	90,6027
3374,8171	90,6007
3375,7813	90,6097
3376,7456	90,6339
3377,7097	90,671
3378,6741	90,7118
3379,6382	90,7435
3380,6025	90,7555
3381,5667	90,7452
3382,5310	90,7183
3383,4951	90,6859
3384,4595	90,6595
3385,4236	90,647
3386,3879	90,6519
3387,3521	90,6744
3388,3164	90,7117
3389,2805	90,758
3390,2449	90,8035
3391,2090	90,8372
3392,1733	90,8517
3393,1375	90,8474
3394,1018	90,8323
3395,0659	90,817
3396,0303	90,809
3396,9944	90,8086
3397,9587	90,8118
3398,9229	90,8147
3399,8872	90,8178
3400,8513	90,8261
3401,8157	90,8452
3402,7798	90,8771
3403,7441	90,9188
3404,7083	90,9633
3405,6726	91,0035
3406,6367	91,0347
3407,6011	91,0558
3408,5652	91,0681
3409,5295	91,0752
3410,4937	91,0816
3411,4580	91,0921
3412,4221	91,1104
3413,3865	91,1373
3414,3506	91,1698
3415,3149	91,2015
3416,2791	91,2243
3417,2434	91,2322
3418,2075	91,224
3419,1719	91,2056
3420,1360	91,1888
3421,1003	91,1866
3422,0645	91,2074
3423,0288	91,2522
3423,9929	91,3151
3424,9573	91,387
3425,9214	91,4581
3426,8857	91,5206
3427,8499	91,5691
3428,8142	91,6013
3429,7783	91,6171
3430,7427	91,6184
3431,7068	91,6093
3432,6711	91,5968
3433,6353	91,5893
3434,5996	91,5937
3435,5637	91,6107
3436,5281	91,6338
3437,4922	91,651
3438,4565	91,6524
3439,4207	91,6367
3440,3850	91,6135
3441,3491	91,5985
3442,3135	91,6029
3443,2776	91,6265
3444,2419	91,658
3445,2061	91,6838
3446,1704	91,6988
3447,1345	91,7109
3448,0989	91,7348
3449,0630	91,78
3450,0273	91,8446
3450,9915	91,9168
3451,9558	91,9813
3452,9199	92,0274
3453,8843	92,0533
3454,8484	92,0646
3455,8127	92,0686
3456,7769	92,0676
3457,7412	92,058
3458,7053	92,0344
3459,6697	91,9962
3460,6338	91,9509
3461,5981	91,9114
3462,5623	91,8891
3463,5266	91,8888
3464,4907	91,9077
3465,4551	91,9397
3466,4192	91,98
3467,3835	92,0264
3468,3477	92,0778
3469,3120	92,1307
3470,2761	92,1792
3471,2405	92,2166
3472,2046	92,2393
3473,1689	92,2497
3474,1331	92,2553
3475,0974	92,2643
3476,0615	92,2818
3477,0259	92,3078
3477,9900	92,3386
3478,9543	92,37
3479,9185	92,3986
3480,8828	92,4236
3481,8469	92,4447
3482,8113	92,4613
3483,7754	92,4739
3484,7397	92,4852
3485,7039	92,5001
3486,6682	92,5236
3487,6323	92,5576
3488,5967	92,6005
3489,5608	92,6469
3490,5251	92,691
3491,4893	92,7296
3492,4536	92,7628
3493,4177	92,7943
3494,3821	92,8298
3495,3462	92,8748
3496,3105	92,9298
3497,2747	92,9872
3498,2390	93,0336
3499,2031	93,0543
3500,1675	93,0411
3501,1316	93,0004
3502,0959	92,957
3503,0601	92,941
3504,0244	92,9654
3504,9885	93,0178
3505,9529	93,0732
3506,9170	93,111
3507,8813	93,1251
3508,8455	93,1274
3509,8098	93,1433
3510,7739	93,1944
3511,7383	93,2827
3512,7024	93,3898
3513,6667	93,4882
3514,6309	93,5535
3515,5952	93,5742
3516,5593	93,5559
3517,5237	93,518
3518,4878	93,484
3519,4521	93,469
3520,4163	93,4753
3521,3806	93,4942
3522,3447	93,513
3523,3091	93,5219
3524,2732	93,5175
3525,2375	93,5042
3526,2017	93,4934
3527,1660	93,5012
3528,1301	93,5423
3529,0945	93,6214
3530,0586	93,7283
3531,0229	93,8438
3531,9871	93,9488
3532,9514	94,0304
3533,9155	94,084
3534,8799	94,114
3535,8440	94,1324
3536,8083	94,1512
3537,7725	94,1741
3538,7368	94,1956
3539,7009	94,2064
3540,6653	94,1995
3541,6294	94,1721
3542,5938	94,1291
3543,5579	94,0901
3544,5222	94,0877
3545,4863	94,1438
3546,4507	94,2424
3547,4148	94,3385
3548,3792	94,3958
3549,3433	94,4074
3550,3076	94,3891
3551,2717	94,367
3552,2361	94,3661
3553,2002	94,3981
3554,1646	94,4541
3555,1287	94,5146
3556,0930	94,5632
3557,0571	94,5898
3558,0215	94,5889
3558,9856	94,562
3559,9500	94,5204
3560,9141	94,4806
3561,8784	94,4539
3562,8425	94,4345
3563,8069	94,3982
3564,7710	94,327
3565,7354	94,2595
3566,6995	94,2848
3567,6638	94,4209
3568,6279	94,5656
3569,5923	94,6282
3570,5564	94,6071
3571,5208	94,5446
3572,4849	94,4763
3573,4492	94,4206
3574,4133	94,3864
3575,3777	94,3754
3576,3418	94,3773
3577,3062	94,3706
3578,2703	94,3322
3579,2346	94,2527
3580,1987	94,145
3581,1631	94,0406
3582,1272	93,9715
3583,0916	93,9479
3584,0557	93,9425
3585,0200	93,8986
3585,9841	93,7718
3586,9485	93,5745
3587,9126	93,3468
3588,8770	93,0957
3589,8411	92,8152
3590,8054	92,5243
3591,7695	92,2543
3592,7339	92,031
3593,6980	91,874
3594,6624	91,7891
3595,6265	91,7486
3596,5908	91,6994
3597,5549	91,6089
3598,5193	91,4988
3599,4834	91,4364
3600,4478	91,4879
3601,4119	91,6664
3602,3762	91,9251
3603,3403	92,2013
3604,3047	92,4557
3605,2688	92,6841
3606,2332	92,9209
3607,1973	93,227
3608,1616	93,6395
3609,1257	94,1122
3610,0901	94,5275
3611,0542	94,7714
3612,0186	94,7948
3612,9827	94,6294
3613,9470	94,366
3614,9111	94,103
3615,8755	93,8926
3616,8396	93,7182
3617,8040	93,5135
3618,7681	93,2143
3619,7324	92,8085
3620,6965	92,3443
3621,6609	91,9046
3622,6250	91,577
3623,5894	91,4248
3624,5535	91,4584
3625,5178	91,6193
3626,4819	91,7931
3627,4463	91,8856
3628,4104	91,9162
3629,3748	91,9528
3630,3389	91,989
3631,3032	92,0203
3632,2673	92,1031
3633,2317	92,2913
3634,1958	92,5892
3635,1602	92,9539
3636,1243	93,3257
3637,0886	93,6586
3638,0527	93,9348
3639,0171	94,1575
3639,9812	94,3394
3640,9456	94,4987
3641,9097	94,6615
3642,8740	94,8583
3643,8381	95,1076
3644,8025	95,3851
3645,7666	95,5945
3646,7310	95,586
3647,6951	95,3215
3648,6594	95,0886
3649,6235	95,1624
3650,5879	95,344
3651,5520	95,4024
3652,5164	95,3532
3653,4805	95,2773
3654,4448	95,2023
3655,4089	95,114
3656,3733	95,0037
3657,3374	94,8854
3658,3018	94,7802
3659,2659	94,7057
3660,2302	94,6699
3661,1943	94,6667
3662,1587	94,6833
3663,1228	94,7174
3664,0872	94,7842
3665,0513	94,898
3666,0156	95,0415
3666,9797	95,1501
3667,9441	95,1488
3668,9082	95,0406
3669,8726	94,9298
3670,8367	94,8987
3671,8010	94,9203
3672,7651	94,8994
3673,7295	94,7346
3674,6936	94,4117
3675,6580	94,0836
3676,6221	93,9177
3677,5864	93,8888
3678,5505	93,884
3679,5149	93,8463
3680,4790	93,766
3681,4434	93,6525
3682,4075	93,5374
3683,3718	93,4726
3684,3359	93,5011
3685,3003	93,6108
3686,2644	93,7003
3687,2288	93,595
3688,1929	93,1731
3689,1572	92,547
3690,1213	92,0002
3691,0857	91,6788
3692,0498	91,5355
3693,0142	91,4855
3693,9783	91,4762
3694,9426	91,4862
3695,9067	91,5186
3696,8711	91,5892
3697,8352	91,7048
3698,7996	91,843
3699,7637	91,9517
3700,7280	91,9794
3701,6921	91,9196
3702,6565	91,8233
3703,6206	91,7628
3704,5850	91,7882
3705,5491	91,9107
3706,5134	92,1029
3707,4775	92,3125
3708,4419	92,5077
3709,4060	92,7607
3710,3704	93,2646
3711,3345	94,0919
3712,2988	94,9669
3713,2629	95,5446
3714,2273	95,724
3715,1914	95,5827
3716,1558	95,2196
3717,1199	94,6965
3718,0842	94,0523
3719,0483	93,3348
3720,0127	92,6091
3720,9768	91,9312
3721,9412	91,3196
3722,9053	90,7659
3723,8696	90,2772
3724,8337	89,8981
3725,7981	89,6803
3726,7622	89,6387
3727,7266	89,7489
3728,6907	89,9724
3729,6550	90,2673
3730,6191	90,5791
3731,5835	90,8369
3732,5476	90,9834
3733,5120	91,0567
3734,4761	91,2372
3735,4404	91,6752
3736,4045	92,2764
3737,3689	92,8593
3738,3330	93,3841
3739,2974	93,9279
3740,2615	94,5655
3741,2258	95,2944
3742,1899	96,015
3743,1543	96,5738
3744,1184	96,8711
3745,0828	96,9355
3746,0469	96,8814
3747,0112	96,8206
3747,9753	96,8064
3748,9397	96,8415
3749,9038	96,9547
3750,8682	97,2042
3751,8323	97,5153
3752,7966	97,7259
3753,7607	97,8096
3754,7251	97,8472
3755,6892	97,8951
3756,6536	97,9476
3757,6177	97,9751
3758,5820	97,9697
3759,5461	97,9478
3760,5105	97,9258
3761,4746	97,9146
3762,4390	97,9231
3763,4031	97,9547
3764,3674	98,0045
3765,3315	98,0628
3766,2959	98,119
3767,2600	98,1613
3768,2244	98,18
3769,1885	98,1746
3770,1528	98,1551
3771,1169	98,135
3772,0813	98,1259
3773,0454	98,1388
3774,0098	98,1804
3774,9739	98,2418
3775,9382	98,294
3776,9023	98,3043
3777,8667	98,2674
3778,8308	98,2118
3779,7952	98,1649
3780,7593	98,1249
3781,7236	98,0751
3782,6877	98,0104
3783,6521	97,9452
3784,6162	97,9056
3785,5806	97,9119
3786,5447	97,9628
3787,5090	98,0364
3788,4731	98,1088
3789,4375	98,17
3790,4016	98,2217
3791,3660	98,2647
3792,3301	98,2869
3793,2944	98,2675
3794,2585	98,1963
3795,2229	98,0927
3796,1870	98,0008
3797,1514	97,9548
3798,1155	97,9482
3799,0798	97,9393
3800,0439	97,8975
3801,0083	97,8439
3801,9724	97,8234
3802,9368	97,8482
3803,9009	97,8992
3804,8652	97,9546
3805,8293	97,9957
3806,7937	98,0143
3807,7578	98,015
3808,7222	98,0113
3809,6863	98,0304
3810,6506	98,1074
3811,6147	98,251
3812,5791	98,4115
3813,5432	98,4939
3814,5076	98,4259
3815,4717	98,2282
3816,4360	97,9955
3817,4001	97,8029
3818,3645	97,6649
3819,3286	97,5722
3820,2930	97,5352
3821,2571	97,5662
3822,2214	97,6313
3823,1855	97,679
3824,1499	97,699
3825,1140	97,7151
3826,0784	97,7482
3827,0425	97,801
3828,0068	97,8624
3828,9709	97,9174
3829,9353	97,9557
3830,8994	97,9773
3831,8638	97,9916
3832,8279	98,0096
3833,7922	98,0299
3834,7563	98,0285
3835,7207	97,966
3836,6848	97,8214
3837,6492	97,6318
3838,6133	97,48
3839,5776	97,4221
3840,5417	97,451
3841,5061	97,5325
3842,4702	97,637
3843,4346	97,739
3844,3987	97,8152
3845,3630	97,858
3846,3271	97,8905
3847,2915	97,9613
3848,2556	98,1164
3849,2200	98,3576
3850,1841	98,6046
3851,1484	98,698
3852,1125	98,5397
3853,0769	98,3031
3854,0410	98,2037
3855,0054	98,1496
3855,9697	98,046
3856,9338	97,9547
3857,8982	97,9486
3858,8623	98,03
3859,8267	98,1334
3860,7908	98,1671
3861,7551	98,0772
3862,7192	97,9071
3863,6836	97,7741
3864,6477	97,7618
3865,6121	97,8584
3866,5762	97,9934
3867,5405	98,0885
3868,5046	98,0894
3869,4690	97,9938
3870,4331	97,8643
3871,3975	97,7876
3872,3616	97,807
3873,3259	97,9059
3874,2900	98,0451
3875,2544	98,1933
3876,2185	98,3249
3877,1829	98,41
3878,1470	98,4155
3879,1113	98,33
3880,0754	98,1887
3881,0398	98,0629
3882,0039	98,0111
3882,9683	98,0444
3883,9324	98,1317
3884,8967	98,2263
3885,8608	98,2895
3886,8252	98,3057
3887,7893	98,2813
3888,7537	98,2265
3889,7178	98,1435
3890,6821	98,0408
3891,6462	97,9507
3892,6106	97,9061
3893,5747	97,9114
3894,5391	97,958
3895,5032	98,0391
3896,4675	98,1367
3897,4316	98,2154
3898,3960	98,242
3899,3601	98,2082
3900,3245	98,127
3901,2886	98,0125
3902,2529	97,8827
3903,2170	97,7755
3904,1814	97,7315
3905,1455	97,7586
3906,1099	97,8345
3907,0740	97,9349
3908,0383	98,0445
3909,0024	98,1504
3909,9668	98,239
3910,9309	98,3009
3911,8953	98,3342
3912,8594	98,3407
3913,8237	98,3198
3914,7878	98,2686
3915,7522	98,193
3916,7163	98,1182
3917,6807	98,0754
3918,6448	98,0742
3919,6091	98,0968
3920,5732	98,1188
3921,5376	98,1249
3922,5017	98,1125
3923,4661	98,0905
3924,4302	98,0737
3925,3945	98,0701
3926,3586	98,0769
3927,3230	98,0873
3928,2871	98,0958
3929,2515	98,099
3930,2156	98,0986
3931,1799	98,1036
3932,1440	98,1224
3933,1084	98,1544
3934,0725	98,1934
3935,0369	98,2379
3936,0010	98,2886
3936,9653	98,3411
3937,9294	98,3821
3938,8938	98,3951
3939,8579	98,3709
3940,8223	98,3179
3941,7864	98,2611
3942,7507	98,2257
3943,7148	98,2184
3944,6792	98,2249
3945,6433	98,2231
3946,6077	98,1976
3947,5718	98,1479
3948,5361	98,0901
3949,5002	98,0479
3950,4646	98,0367
3951,4287	98,056
3952,3931	98,0961
3953,3572	98,146
3954,3215	98,1967
3955,2856	98,2405
3956,2500	98,2703
3957,2141	98,2798
3958,1785	98,2662
3959,1426	98,2335
3960,1069	98,1945
3961,0710	98,1674
3962,0354	98,1678
3962,9995	98,1994
3963,9639	98,2519
3964,9280	98,3065
3965,8923	98,3446
3966,8564	98,3547
3967,8208	98,3345
3968,7849	98,291
3969,7493	98,2365
3970,7134	98,1849
3971,6777	98,149
3972,6418	98,1378
3973,6062	98,1546
3974,5703	98,1951
3975,5347	98,2478
3976,4988	98,2979
3977,4631	98,3331
3978,4272	98,3474
3979,3916	98,3416
3980,3557	98,3207
3981,3201	98,2915
3982,2842	98,26
3983,2485	98,2302
3984,2126	98,2038
3985,1770	98,1808
3986,1411	98,1609
3987,1055	98,145
3988,0696	98,136
3989,0339	98,1374
3989,9980	98,1514
3990,9624	98,1767
3991,9265	98,2089
3992,8909	98,2435
3993,8550	98,2786
3994,8193	98,3149
3995,7834	98,3524
3996,7478	98,3873
3997,7119	98,4116
3998,6763	98,4171
3999,6404	98,4006
4000,6047	98,2122

##### Extended Information
[Comments]
Sample name	N-GQD_Glu
Comment
User
Division
Company	ICMAB

[Detailed Information]
Creation date	25/11/2024 19:45

Data array type	Linear data array
Horizontal axis	Wavenumber [cm-1]
Vertical axis	%T
Start	399,193 cm-1
End	4000,6 cm-1
Data interval	0,964233 cm-1
Data points	3736    

[Measurement Information]
Model Name	FT/IR-4700typeA
Serial Number	C033961788

Accessory	ATR-PRO-ONE
Accessory S/N	B102761809
Incident angle	45 deg

Measurement Date	25/11/2024 19:42

Light Source	Standard
Detector	TGS
Accumulation	32
Resolution	4 cm-1
Zero Filling	On
Apodization	Cosine
Gain	Auto (8)
Aperture	Auto (7.1 mm)
Scanning Speed	Auto (2 mm/sec)
Filter	Auto (30000 Hz)

